AQI,VIB,AccelY,GyroY,GyroZ,eCO2,CO,AccelX,AccelZ,TVOC,GyroX,label
-0.2821510516226076,-1.3308777356832997,-1.334456606025716,-1.2633987576079548,-0.1062011802465083,-0.2887140777864668,0.7190469941582505,-1.478058447160983,-1.1504164768932237,-0.3060338688391815,1.0657440894160777,0
-0.2821510516226076,-1.3286305647635144,-1.3324489819338248,-1.2633987576079548,-0.1062011802465083,-0.2874317492066631,0.7190469941582505,-1.478058447160983,-1.1504164768932237,-0.3044013222447021,1.0657440894160777,0
-0.2821510516226076,-1.3308777356832997,-1.328433733750042,-1.2633987576079548,-0.1062011802465083,-0.2887140777864668,0.5771150420656947,-1.4770223143151513,-1.1494294127432756,-0.3049691645384341,1.0657440894160777,0
-0.2821510516226076,-1.3308777356832997,-1.3277645257194115,-1.2633987576079548,-0.1062011802465083,-0.2875071802995927,0.5771150420656947,-1.479094580006814,-1.1494294127432756,-0.3044013222447021,1.049878778018394,0
-0.2821510516226076,-1.3286305647635144,-1.3371334381482378,-1.2649002899874044,-0.0592118644204732,-0.2887140777864668,0.5771150420656947,-1.4785765135838984,-1.145481156143485,-0.3061048491258981,1.0657440894160777,0
-0.2821510516226076,-1.3286305647635144,-1.333118189964455,-1.2626479914182298,-0.1531904960725434,-0.2887140777864668,0.5771150420656947,-1.4772813475266091,-1.1583129900928046,-0.3051111251118671,1.0816094008137611,0
-0.2821510516226076,-1.3308777356832997,-1.3398102702707595,-1.2633987576079548,-0.1062011802465083,-0.2873563181137334,0.5771150420656947,-1.4798716796411877,-1.1464682202934326,-0.3043303419579856,1.0657440894160777,0
-0.2821510516226076,-1.3286305647635144,-1.334456606025716,-1.2633987576079548,-0.1531904960725434,-0.2887140777864668,0.5771150420656947,-1.47598618146932,-1.1731189523420196,-0.3051111251118671,1.0816094008137611,0
-0.2821510516226076,-1.3308777356832997,-1.334456606025716,-1.2633987576079548,-0.1062011802465083,-0.2887140777864668,0.5771150420656947,-1.477799413949525,-1.1405458353937463,-0.3053950462587331,1.0657440894160777,0
-0.2821510516226076,-1.3286305647635144,-1.334456606025716,-1.2626479914182298,-0.1296958381595259,-0.2887140777864668,0.5771150420656947,-1.4775403807380671,-1.154364733493014,-0.3049691645384341,1.0816094008137611,0
-0.2821510516226076,-1.3308777356832997,-1.3337873979950856,-1.2633987576079548,-0.0827065223334908,-0.2887140777864668,0.435183089973139,-1.4770223143151513,-1.1425199636936418,-0.3052530856853001,1.0816094008137611,0
-0.2821510516226076,-1.3286305647635144,-1.334456606025716,-1.2633987576079548,-0.1296958381595259,-0.2881106290430297,0.435183089973139,-1.4767632811036937,-1.1415328995436942,-0.3046852433915681,1.0657440894160777,0
-0.2821510516226076,-1.3286305647635144,-1.3364642301176073,-1.2633987576079548,-0.1062011802465083,-0.2884123534147483,0.364217113926861,-1.4785765135838984,-1.1553517976429617,-0.3047562236782846,1.0816094008137611,0
-0.2821510516226076,-1.3286305647635144,-1.3337873979950856,-1.2633987576079548,-0.1296958381595259,-0.2887140777864668,0.5771150420656947,-1.478058447160983,-1.1523906051931188,-0.3054660265454496,1.0816094008137611,0
-0.2821510516226076,-1.3286305647635144,-1.3364642301176073,-1.2633987576079548,-0.1296958381595259,-0.2887140777864668,0.435183089973139,-1.474172948989115,-1.1553517976429617,-0.3050401448251506,1.0816094008137611,0
-0.2821510516226076,-1.3308777356832997,-1.3297721498113029,-1.2633987576079548,-0.1062011802465083,-0.2887140777864668,0.364217113926861,-1.4783174803724406,-1.1533776693430664,-0.3055370068321661,1.049878778018394,0
-0.2821510516226076,-1.3308777356832997,-1.328433733750042,-1.2633987576079548,-0.0827065223334908,-0.2887140777864668,0.364217113926861,-1.478058447160983,-1.1464682202934326,-0.3052530856853001,1.0657440894160777,0
-0.2821510516226076,-1.3308777356832997,-1.331110565872564,-1.2633987576079548,-0.0827065223334908,-0.287658042485452,0.435183089973139,-1.4772813475266091,-1.1504164768932237,-0.3044723025314186,1.0657440894160777,0
-0.2821510516226076,-1.3286305647635144,-1.3291029417806726,-1.2633987576079548,-0.1296958381595259,-0.2887140777864668,0.364217113926861,-1.4775403807380671,-1.1514035410431709,-0.3051111251118671,1.0816094008137611,0
-0.2821510516226076,-1.3308777356832997,-1.337802646178868,-1.2633987576079548,-0.0827065223334908,-0.2875826113925223,0.364217113926861,-1.476504247892236,-1.1523906051931188,-0.3044723025314186,1.0816094008137611,0
-0.2821510516226076,-1.3308777356832997,-1.3317797739031942,-1.2633987576079548,-0.1062011802465083,-0.2875071802995927,0.364217113926861,-1.4788355467953562,-1.1464682202934326,-0.3044013222447021,1.0657440894160777,0
-0.2821510516226076,-1.3286305647635144,-1.3458331425464334,-1.261897225228505,-0.1531904960725434,-0.2887140777864668,0.364217113926861,-1.479094580006814,-1.1533776693430664,-0.3051111251118671,1.0816094008137611,0
-0.2821510516226076,-1.3286305647635144,-1.3291029417806726,-1.2626479914182298,-0.1531904960725434,-0.2887140777864668,0.293251137880584,-1.476504247892236,-1.1553517976429617,-0.3051111251118671,1.0816094008137611,0
-0.2821510516226076,-1.3286305647635144,-1.318395613290586,-1.2641495237976794,-0.0357172065074557,-0.2887140777864668,0.364217113926861,-1.482462011755766,-1.1563388617929091,-0.3058919082657486,1.0816094008137611,0
-0.2821510516226076,-1.3286305647635144,-1.3418178943626509,-1.2633987576079548,-0.1296958381595259,-0.2887140777864668,0.293251137880584,-1.4767632811036937,-1.169170695742229,-0.3050401448251506,1.0816094008137611,0
-0.2821510516226076,-1.3286305647635144,-1.337802646178868,-1.2626479914182298,-0.1296958381595259,-0.2851688164187742,0.293251137880584,-1.4767632811036937,-1.1444940919935374,-0.3034075982306711,1.0816094008137611,0
-0.2821510516226076,-1.3286305647635144,-1.3317797739031942,-1.2626479914182298,-0.1531904960725434,-0.2887140777864668,0.293251137880584,-1.476504247892236,-1.1435070278435897,-0.3051111251118671,1.0657440894160777,0
-0.2821510516226076,-1.3286305647635144,-1.3337873979950856,-1.2633987576079548,-0.1531904960725434,-0.2875071802995927,0.293251137880584,-1.4772813475266091,-1.1593000542427525,-0.3044013222447021,1.0816094008137611,0
-0.2821510516226076,-1.3286305647635144,-1.3304413578419334,-1.2633987576079548,-0.1062011802465083,-0.2887140777864668,0.293251137880584,-1.4788355467953562,-1.1553517976429617,-0.3051111251118671,1.0657440894160777,0
-0.2821510516226076,-1.3286305647635144,-1.3411486863320203,-1.2633987576079548,-0.1531904960725434,-0.2881860601359594,0.293251137880584,-1.479353613218272,-1.157325925942857,-0.3046852433915681,1.0816094008137611,0
-0.2821510516226076,-1.3308777356832997,-1.3257569016275204,-1.2633987576079548,-0.1062011802465083,-0.2887140777864668,0.293251137880584,-1.477799413949525,-1.154364733493014,-0.3049691645384341,1.0816094008137611,0
-0.2821510516226076,-1.3286305647635144,-1.335795022086977,-1.2641495237976794,-0.1296958381595259,-0.2887140777864668,0.2222851618343061,-1.479094580006814,-1.1514035410431709,-0.3050401448251506,1.0657440894160777,0
-0.2821510516226076,-1.3308777356832997,-1.3324489819338248,-1.2633987576079548,-0.0827065223334908,-0.2886386466935371,0.1513191857880282,-1.4798716796411877,-1.1464682202934326,-0.3048981842517176,1.0816094008137611,0
-0.2821510516226076,-1.3308777356832997,-1.3297721498113029,-1.2633987576079548,-0.0827065223334908,-0.2887140777864668,0.2222851618343061,-1.4788355467953562,-1.1464682202934326,-0.3054660265454496,1.0657440894160777,0
-0.2821510516226076,-1.3286305647635144,-1.3210724454131073,-1.2641495237976794,-0.0592118644204732,-0.2878843357642409,0.1513191857880282,-1.4767632811036937,-1.1444940919935374,-0.3045432828181351,1.0657440894160777,0
-0.2821510516226076,-1.3308777356832997,-1.3324489819338248,-1.2641495237976794,-0.0827065223334908,-0.2866020071844372,0.0803532097417503,-1.4783174803724406,-1.1563388617929091,-0.3040464208111196,1.0657440894160777,0
-0.2821510516226076,-1.3286305647635144,-1.3297721498113029,-1.2633987576079548,-0.1296958381595259,-0.2887140777864668,0.0803532097417503,-1.4775403807380671,-1.1553517976429617,-0.3051111251118671,1.0657440894160777,0
-0.2821510516226076,-1.3308777356832997,-1.3371334381482378,-1.2641495237976794,-0.0827065223334908,-0.2875071802995927,0.1513191857880282,-1.4809078124870192,-1.145481156143485,-0.3044013222447021,1.0657440894160777,0
-0.2821510516226076,-1.3286305647635144,-1.3324489819338248,-1.2633987576079548,-0.1296958381595259,-0.2887140777864668,0.0803532097417503,-1.4775403807380671,-1.1444940919935374,-0.3055370068321661,1.0816094008137611,0
-0.2821510516226076,-1.3308777356832997,-1.3351258140563464,-1.2633987576079548,-0.0827065223334908,-0.2872808870208038,0.0803532097417503,-1.4785765135838984,-1.1504164768932237,-0.3043303419579856,1.0657440894160777,0
-0.2821510516226076,-1.3308777356832997,-1.3297721498113029,-1.2633987576079548,-0.1062011802465083,-0.2885632156006075,0.0803532097417503,-1.479353613218272,-1.154364733493014,-0.3048272039650011,1.0657440894160777,0
-0.2821510516226076,-1.3308777356832997,-1.3418178943626509,-1.2641495237976794,-0.0592118644204732,-0.2867528693702964,0.1513191857880282,-1.4785765135838984,-1.1563388617929091,-0.3041174010978361,1.0657440894160777,0
-0.2821510516226076,-1.3286305647635144,-1.337802646178868,-1.2633987576079548,-0.1296958381595259,-0.2866020071844372,0.0803532097417503,-1.4772813475266091,-1.1523906051931188,-0.3040464208111196,1.0816094008137611,0
-0.2821510516226076,-1.3286305647635144,-1.323080069504999,-1.2641495237976794,-0.1296958381595259,-0.2866774382773668,0.0803532097417503,-1.4783174803724406,-1.1563388617929091,-0.3040464208111196,1.0816094008137611,0
-0.2821510516226076,-1.3286305647635144,-1.3317797739031942,-1.2633987576079548,-0.1296958381595259,-0.286828300463226,0.0803532097417503,-1.4775403807380671,-1.1602871183927,-0.3041174010978361,1.0816094008137611,0
-0.2821510516226076,-1.3308777356832997,-1.322410861474368,-1.2633987576079548,-0.1062011802465083,-0.2867528693702964,0.0803532097417503,-1.4785765135838984,-1.139558771243799,-0.3041174010978361,1.0816094008137611,0
-0.2821510516226076,-1.3286305647635144,-1.3364642301176073,-1.2626479914182298,-0.1296958381595259,-0.2869791626490853,0.0803532097417503,-1.476245214680778,-1.1444940919935374,-0.3041883813845526,1.0816094008137611,0
-0.2821510516226076,-1.3286305647635144,-1.3317797739031942,-1.2633987576079548,-0.1296958381595259,-0.2878843357642409,0.0803532097417503,-1.4783174803724406,-1.1583129900928046,-0.3046142631048516,1.0657440894160777,0
-0.2821510516226076,-1.3286305647635144,-1.3384718542094989,-1.2633987576079548,-0.1296958381595259,-0.2863002828127187,0.0803532097417503,-1.4783174803724406,-1.1622612466925952,-0.3039044602376866,1.0816094008137611,0
-0.2821510516226076,-1.3286305647635144,-1.3337873979950856,-1.2633987576079548,-0.1062011802465083,-0.2866020071844372,0.0803532097417503,-1.4783174803724406,-1.1612741825426476,-0.3040464208111196,1.0816094008137611,0
-0.2821510516226076,-1.3286305647635144,-1.3398102702707595,-1.2633987576079548,-0.1062011802465083,-0.288261491228889,-0.0615787423508054,-1.478058447160983,-1.157325925942857,-0.3046852433915681,1.0816094008137611,0
-0.2821510516226076,-1.3286305647635144,-1.3337873979950856,-1.2633987576079548,-0.1062011802465083,-0.2887140777864668,-0.1325447183970833,-1.4788355467953562,-1.1504164768932237,-0.3050401448251506,1.0816094008137611,0
-0.2821510516226076,-1.3308777356832997,-1.3364642301176073,-1.2633987576079548,-0.0827065223334908,-0.2884877845076779,-0.1325447183970833,-1.47961264642973,-1.154364733493014,-0.3048272039650011,1.0816094008137611,0
-0.2821510516226076,-1.3308777356832997,-1.3411486863320203,-1.2641495237976794,-0.1062011802465083,-0.2881106290430297,-0.0615787423508054,-1.4785765135838984,-1.1563388617929091,-0.3046852433915681,1.0657440894160777,0
-0.2821510516226076,-1.3286305647635144,-1.3351258140563464,-1.261897225228505,-0.1531904960725434,-0.2887140777864668,-0.700272526767306,-1.4801307128526455,-1.1425199636936418,-0.3052530856853001,1.0657440894160777,0
-0.2821510516226076,-1.3308777356832997,-1.3418178943626509,-1.2641495237976794,-0.0827065223334908,-0.287658042485452,-0.2035106944433612,-1.478058447160983,-1.1474552844433803,-0.3044723025314186,1.0657440894160777,0
-0.2821510516226076,-1.3286305647635144,-1.333118189964455,-1.2633987576079548,-0.1296958381595259,-0.2881106290430297,-0.0615787423508054,-1.479353613218272,-1.1464682202934326,-0.3046852433915681,1.0816094008137611,0
-0.2821510516226076,-1.3286305647635144,-1.3398102702707595,-1.261897225228505,-0.1531904960725434,-0.2880351979501001,-0.1325447183970833,-1.4754681150464044,-1.1652224391424382,-0.3046142631048516,1.0816094008137611,0
-0.2821510516226076,-1.3308777356832997,-1.328433733750042,-1.2633987576079548,-0.0827065223334908,-0.2872054559278742,-0.1325447183970833,-1.479353613218272,-1.1474552844433803,-0.3042593616712691,1.0657440894160777,0
-0.2821510516226076,-1.3308777356832997,-1.3304413578419334,-1.2633987576079548,-0.1062011802465083,-0.2887140777864668,-0.1325447183970833,-1.4788355467953562,-1.154364733493014,-0.3051111251118671,1.0657440894160777,0
-0.2821510516226076,-1.3308777356832997,-1.3190648213212164,-1.2641495237976794,-0.1062011802465083,-0.2887140777864668,-0.2035106944433612,-1.4788355467953562,-1.154364733493014,-0.3051821053985836,1.049878778018394,0
-0.2821510516226076,-1.3308777356832997,-1.328433733750042,-1.2626479914182298,-0.1296958381595259,-0.2887140777864668,-0.2035106944433612,-1.4801307128526455,-1.1435070278435897,-0.3049691645384341,1.049878778018394,0
-0.2821510516226076,-1.3286305647635144,-1.3364642301176073,-1.2633987576079548,-0.1062011802465083,-0.2879597668571705,-0.2035106944433612,-1.4775403807380671,-1.1504164768932237,-0.3046142631048516,1.0816094008137611,0
-0.2821510516226076,-1.3308777356832997,-1.3364642301176073,-1.2641495237976794,-0.0827065223334908,-0.2857722651622112,-0.2035106944433612,-1.4783174803724406,-1.1642353749924903,-0.3036915193775371,1.0657440894160777,0
-0.2821510516226076,-1.3286305647635144,-1.3364642301176073,-1.2633987576079548,-0.1531904960725434,-0.2887140777864668,-0.2035106944433612,-1.4772813475266091,-1.154364733493014,-0.3052530856853001,1.0816094008137611,0
-0.2821510516226076,-1.3308777356832997,-1.3337873979950856,-1.2641495237976794,-0.0827065223334908,-0.2864511449985779,-0.2035106944433612,-1.476504247892236,-1.145481156143485,-0.3039754405244031,1.0657440894160777,0
-0.2821510516226076,-1.3286305647635144,-1.3197340293518467,-1.2633987576079548,-0.1296958381595259,-0.287054593742015,-0.5583405746747502,-1.4822029785443085,-1.1316622580442175,-0.3041883813845526,1.0657440894160777,0
-0.2821510516226076,-1.3308777356832997,-1.331110565872564,-1.2633987576079548,-0.1062011802465083,-0.2866774382773668,-0.2744766704896391,-1.4785765135838984,-1.1464682202934326,-0.3040464208111196,1.0657440894160777,0
-0.2821510516226076,-1.3308777356832997,-1.3190648213212164,-1.2633987576079548,-0.1062011802465083,-0.2887140777864668,-0.2744766704896391,-1.4788355467953562,-1.1444940919935374,-0.3050401448251506,1.0657440894160777,0
-0.2821510516226076,-1.3129003683250189,-1.3143803651068031,-1.2491342000031815,-0.176685153985561,-0.2865265760915075,-0.2035106944433612,-1.478058447160983,-1.139558771243799,-0.3039754405244031,1.1609359578021794,0
-0.2821510516226076,-1.3308777356832997,-1.3257569016275204,-1.2633987576079548,-0.1062011802465083,-0.2887140777864668,0.293251137880584,-1.477799413949525,-1.154364733493014,-0.3049691645384341,1.0816094008137611,0
-0.2821510516226076,-1.3286305647635144,-1.335795022086977,-1.2641495237976794,-0.1296958381595259,-0.2887140777864668,0.2222851618343061,-1.479094580006814,-1.1514035410431709,-0.3050401448251506,1.0657440894160777,0
-0.2821510516226076,-1.3308777356832997,-1.3324489819338248,-1.2633987576079548,-0.0827065223334908,-0.2886386466935371,0.1513191857880282,-1.4798716796411877,-1.1464682202934326,-0.3048981842517176,1.0816094008137611,0
-0.2821510516226076,-1.3308777356832997,-1.3297721498113029,-1.2633987576079548,-0.0827065223334908,-0.2887140777864668,0.2222851618343061,-1.4788355467953562,-1.1464682202934326,-0.3054660265454496,1.0657440894160777,0
-0.2821510516226076,-1.3286305647635144,-1.3210724454131073,-1.2641495237976794,-0.0592118644204732,-0.2878843357642409,0.1513191857880282,-1.4767632811036937,-1.1444940919935374,-0.3045432828181351,1.0657440894160777,0
-0.2821510516226076,-1.3308777356832997,-1.3324489819338248,-1.2641495237976794,-0.0827065223334908,-0.2866020071844372,0.0803532097417503,-1.4783174803724406,-1.1563388617929091,-0.3040464208111196,1.0657440894160777,0
-0.2821510516226076,-1.3286305647635144,-1.3297721498113029,-1.2633987576079548,-0.1296958381595259,-0.2887140777864668,0.0803532097417503,-1.4775403807380671,-1.1553517976429617,-0.3051111251118671,1.0657440894160777,0
-0.2821510516226076,-1.3308777356832997,-1.3371334381482378,-1.2641495237976794,-0.0827065223334908,-0.2875071802995927,0.1513191857880282,-1.4809078124870192,-1.145481156143485,-0.3044013222447021,1.0657440894160777,0
-0.2821510516226076,-1.3286305647635144,-1.3324489819338248,-1.2633987576079548,-0.1296958381595259,-0.2887140777864668,0.0803532097417503,-1.4775403807380671,-1.1444940919935374,-0.3055370068321661,1.0816094008137611,0
-0.2821510516226076,-1.3308777356832997,-1.3351258140563464,-1.2633987576079548,-0.0827065223334908,-0.2872808870208038,0.0803532097417503,-1.4785765135838984,-1.1504164768932237,-0.3043303419579856,1.0657440894160777,0
-0.2821510516226076,-1.3308777356832997,-1.3297721498113029,-1.2633987576079548,-0.1062011802465083,-0.2885632156006075,0.0803532097417503,-1.479353613218272,-1.154364733493014,-0.3048272039650011,1.0657440894160777,0
-0.2821510516226076,-1.3308777356832997,-1.3418178943626509,-1.2641495237976794,-0.0592118644204732,-0.2867528693702964,0.1513191857880282,-1.4785765135838984,-1.1563388617929091,-0.3041174010978361,1.0657440894160777,0
-0.2821510516226076,-1.3286305647635144,-1.337802646178868,-1.2633987576079548,-0.1296958381595259,-0.2866020071844372,0.0803532097417503,-1.4772813475266091,-1.1523906051931188,-0.3040464208111196,1.0816094008137611,0
-0.2821510516226076,-1.3286305647635144,-1.323080069504999,-1.2641495237976794,-0.1296958381595259,-0.2866774382773668,0.0803532097417503,-1.4783174803724406,-1.1563388617929091,-0.3040464208111196,1.0816094008137611,0
-0.2821510516226076,-1.3286305647635144,-1.3317797739031942,-1.2633987576079548,-0.1296958381595259,-0.286828300463226,0.0803532097417503,-1.4775403807380671,-1.1602871183927,-0.3041174010978361,1.0816094008137611,0
-0.2821510516226076,-1.3308777356832997,-1.322410861474368,-1.2633987576079548,-0.1062011802465083,-0.2867528693702964,0.0803532097417503,-1.4785765135838984,-1.139558771243799,-0.3041174010978361,1.0816094008137611,0
-0.2821510516226076,-1.3286305647635144,-1.3364642301176073,-1.2626479914182298,-0.1296958381595259,-0.2869791626490853,0.0803532097417503,-1.476245214680778,-1.1444940919935374,-0.3041883813845526,1.0816094008137611,0
-0.2821510516226076,-1.3286305647635144,-1.3317797739031942,-1.2633987576079548,-0.1296958381595259,-0.2878843357642409,0.0803532097417503,-1.4783174803724406,-1.1583129900928046,-0.3046142631048516,1.0657440894160777,0
-0.2821510516226076,-1.3286305647635144,-1.3384718542094989,-1.2633987576079548,-0.1296958381595259,-0.2863002828127187,0.0803532097417503,-1.4783174803724406,-1.1622612466925952,-0.3039044602376866,1.0816094008137611,0
-0.2821510516226076,-1.3286305647635144,-1.3337873979950856,-1.2633987576079548,-0.1062011802465083,-0.2866020071844372,0.0803532097417503,-1.4783174803724406,-1.1612741825426476,-0.3040464208111196,1.0816094008137611,0
-0.2821510516226076,-1.3286305647635144,-1.3398102702707595,-1.2633987576079548,-0.1062011802465083,-0.288261491228889,-0.0615787423508054,-1.478058447160983,-1.157325925942857,-0.3046852433915681,1.0816094008137611,0
-0.2821510516226076,-1.3286305647635144,-1.3337873979950856,-1.2633987576079548,-0.1062011802465083,-0.2887140777864668,-0.1325447183970833,-1.4788355467953562,-1.1504164768932237,-0.3050401448251506,1.0816094008137611,0
-0.2821510516226076,-1.3308777356832997,-1.3364642301176073,-1.2633987576079548,-0.0827065223334908,-0.2884877845076779,-0.1325447183970833,-1.47961264642973,-1.154364733493014,-0.3048272039650011,1.0816094008137611,0
-0.2821510516226076,-1.3308777356832997,-1.3411486863320203,-1.2641495237976794,-0.1062011802465083,-0.2881106290430297,-0.0615787423508054,-1.4785765135838984,-1.1563388617929091,-0.3046852433915681,1.0657440894160777,0
-0.2821510516226076,-1.3286305647635144,-1.3351258140563464,-1.261897225228505,-0.1531904960725434,-0.2887140777864668,-0.700272526767306,-1.4801307128526455,-1.1425199636936418,-0.3052530856853001,1.0657440894160777,0
-0.2821510516226076,-1.3308777356832997,-1.3418178943626509,-1.2641495237976794,-0.0827065223334908,-0.287658042485452,-0.2035106944433612,-1.478058447160983,-1.1474552844433803,-0.3044723025314186,1.0657440894160777,0
-0.2821510516226076,-1.3286305647635144,-1.333118189964455,-1.2633987576079548,-0.1296958381595259,-0.2881106290430297,-0.0615787423508054,-1.479353613218272,-1.1464682202934326,-0.3046852433915681,1.0816094008137611,0
-0.2821510516226076,-1.3286305647635144,-1.3398102702707595,-1.261897225228505,-0.1531904960725434,-0.2880351979501001,-0.1325447183970833,-1.4754681150464044,-1.1652224391424382,-0.3046142631048516,1.0816094008137611,0
-0.2821510516226076,-1.3308777356832997,-1.328433733750042,-1.2633987576079548,-0.0827065223334908,-0.2872054559278742,-0.1325447183970833,-1.479353613218272,-1.1474552844433803,-0.3042593616712691,1.0657440894160777,0
-0.2821510516226076,-1.3308777356832997,-1.3304413578419334,-1.2633987576079548,-0.1062011802465083,-0.2887140777864668,-0.1325447183970833,-1.4788355467953562,-1.154364733493014,-0.3051111251118671,1.0657440894160777,0
-0.2821510516226076,-1.3308777356832997,-1.3190648213212164,-1.2641495237976794,-0.1062011802465083,-0.2887140777864668,-0.2035106944433612,-1.4788355467953562,-1.154364733493014,-0.3051821053985836,1.049878778018394,0
-0.2821510516226076,-1.3308777356832997,-1.328433733750042,-1.2626479914182298,-0.1296958381595259,-0.2887140777864668,-0.2035106944433612,-1.4801307128526455,-1.1435070278435897,-0.3049691645384341,1.049878778018394,0
-0.2821510516226076,-1.3286305647635144,-1.3364642301176073,-1.2633987576079548,-0.1062011802465083,-0.2879597668571705,-0.2035106944433612,-1.4775403807380671,-1.1504164768932237,-0.3046142631048516,1.0816094008137611,0
-0.2821510516226076,-1.3308777356832997,-1.3364642301176073,-1.2641495237976794,-0.0827065223334908,-0.2857722651622112,-0.2035106944433612,-1.4783174803724406,-1.1642353749924903,-0.3036915193775371,1.0657440894160777,0
-0.2821510516226076,-1.3286305647635144,-1.3364642301176073,-1.2633987576079548,-0.1531904960725434,-0.2887140777864668,-0.2035106944433612,-1.4772813475266091,-1.154364733493014,-0.3052530856853001,1.0816094008137611,0
-0.2821510516226076,-1.3308777356832997,-1.3337873979950856,-1.2641495237976794,-0.0827065223334908,-0.2864511449985779,-0.2035106944433612,-1.476504247892236,-1.145481156143485,-0.3039754405244031,1.0657440894160777,0
-0.2821510516226076,-1.3286305647635144,-1.3197340293518467,-1.2633987576079548,-0.1296958381595259,-0.287054593742015,-0.5583405746747502,-1.4822029785443085,-1.1316622580442175,-0.3041883813845526,1.0657440894160777,0
-0.2821510516226076,-1.3308777356832997,-1.331110565872564,-1.2633987576079548,-0.1062011802465083,-0.2866774382773668,-0.2744766704896391,-1.4785765135838984,-1.1464682202934326,-0.3040464208111196,1.0657440894160777,0
-0.2821510516226076,-1.3308777356832997,-1.3190648213212164,-1.2633987576079548,-0.1062011802465083,-0.2887140777864668,-0.2744766704896391,-1.4788355467953562,-1.1444940919935374,-0.3050401448251506,1.0657440894160777,0
-0.2821510516226076,-1.3129003683250189,-1.3143803651068031,-1.2491342000031815,-0.176685153985561,-0.2865265760915075,-0.2035106944433612,-1.478058447160983,-1.139558771243799,-0.3039754405244031,1.1609359578021794,0
-0.2821510516226076,-1.3308777356832997,-1.3384718542094989,-1.2633987576079548,-0.1062011802465083,-0.2858476962551409,-0.2744766704896391,-1.4772813475266091,-1.1553517976429617,-0.3036915193775371,1.049878778018394,0
-0.2821510516226076,-1.3308777356832997,-1.322410861474368,-1.2633987576079548,-0.1062011802465083,-0.2886386466935371,-0.2744766704896391,-1.4798716796411877,-1.1652224391424382,-0.3048981842517176,1.0816094008137611,0
-0.2821510516226076,-1.3241362229239444,-1.333118189964455,-1.2641495237976794,-0.1062011802465083,-0.286828300463226,-0.700272526767306,-1.477799413949525,-1.145481156143485,-0.3041174010978361,1.176801269199863,0
-0.2821510516226076,-1.3286305647635144,-1.3143803651068031,-1.267152588556579,-0.1062011802465083,-0.2887140777864668,-0.7712385028135839,-1.4783174803724406,-1.1435070278435897,-0.3055370068321661,1.0340134666207104,0
-0.2821510516226076,-1.3263833938437293,-1.333118189964455,-1.2686541209360291,-0.0827065223334908,-0.2880351979501001,-0.345442646535917,-1.4819439453328502,-1.175093080641915,-0.3046142631048516,1.018148155223027,0
-0.2821510516226076,-1.3308777356832997,-1.337802646178868,-1.2641495237976794,-0.1531904960725434,-0.2883369223218186,-0.345442646535917,-1.482462011755766,-1.2037179409903973,-0.3047562236782846,1.018148155223027,0
-0.2821510516226076,-1.3308777356832997,-1.3491791826995856,-1.2641495237976794,-0.0827065223334908,-0.2886386466935371,-0.4873745986284723,-1.4280650373496202,-1.118830424094898,-0.3048981842517176,0.9864175324276596,0
-0.2621782196641837,-1.3286305647635144,-1.3552020549752597,-1.260395692849055,-0.2001798118985786,-0.2813218306793631,-0.345442646535917,-1.4441250964600063,-1.1849637221413916,-0.3015621107760422,0.9546869096322922,0
-0.2621782196641837,-1.3286305647635144,-1.337802646178868,-1.2633987576079548,-0.0827065223334908,-0.2769468272894447,-0.2035106944433612,-1.479353613218272,-1.1731189523420196,-0.2992197613143978,1.1133400236091286,0
-0.2621782196641837,-1.3286305647635144,-1.3163879891986945,-1.2649002899874044,-0.0827065223334908,-0.2715157885985114,0.0093872336954724,-1.4811668456984768,-1.1287010655943746,-0.2958836878387224,1.0816094008137611,0
-0.2621782196641837,-1.3286305647635144,-1.3337873979950856,-1.2626479914182298,-0.1296958381595259,-0.2657830255358596,0.293251137880584,-1.4894559084651278,-1.2254333522892458,-0.2917668312091656,1.1133400236091286,0
-0.2422053877057598,-1.319641881084374,-1.3398102702707595,-1.2686541209360291,-0.0357172065074557,-0.2583153473358264,0.5771150420656947,-1.4850523438703445,-1.1425199636936418,-0.2848817433976653,1.1450706464044955,0
-0.2422053877057598,-1.3308777356832997,-1.318395613290586,-1.2649002899874044,-0.0827065223334908,-0.2558261212691486,0.7190469941582505,-1.491787207368248,-1.186937850441287,-0.2779256752994485,1.049878778018394,0
-0.2422053877057598,-1.3331249066030848,-1.3110343249536511,-1.260395692849055,-0.1062011802465083,-0.253714050667119,1.002910898343362,-1.4891968752536695,-1.204705005140345,-0.2716084297816802,1.049878778018394,0
-0.2422053877057598,-1.3308777356832997,-1.323080069504999,-1.26114645903878,-0.1062011802465083,-0.2507722380428635,1.1448428504359178,-1.4700284176057898,-1.2303686730389842,-0.2623100122218191,1.1133400236091286,0
-0.2222325557473359,-1.3353720775228697,-1.3096959088923903,-1.26114645903878,-0.0827065223334908,-0.2474532699539599,1.1448428504359178,-1.467956151914127,-1.2234592239893505,-0.2509531663471795,1.018148155223027,0
-0.2222325557473359,-1.3263833938437293,-1.321741653443738,-1.2649002899874044,-0.0827065223334908,-0.2459446480953673,1.2867748025284729,-1.4609622552047656,-1.2027308768404497,-0.2453457236965762,1.1133400236091286,0
-0.2222325557473359,-1.3308777356832997,-1.2414366897680864,-1.261897225228505,-0.1062011802465083,-0.2427765421923229,1.3577407785747506,-1.4868655763505492,-1.154364733493014,-0.2334210355282046,1.0657440894160777,0
-0.2222325557473359,-1.2994173428063085,-1.1490859815410868,-1.2686541209360291,-0.3176531014636664,-0.2409661959620118,1.4996727306673063,-1.4638116205308018,-1.2945278427855826,-0.2262520265698383,1.446511562960485,0
-0.2222325557473359,-1.317394710164589,-1.1256637004690218,-1.2633987576079548,-0.0827065223334908,-0.2385524009882637,1.4996727306673063,-1.4614803216276813,-1.3596740766821287,-0.2166696878631112,1.3354543831766994,0
-0.2222325557473359,-0.8072869113733748,0.0213588640315361,-1.5276684563911194,2.572189821837493,-0.2401364539397859,1.4996727306673063,-1.5990269569117923,1.0023704341426385,-0.2231998742410289,-2.7577959574256776,0
-0.2222325557473359,-1.2185191896940453,-1.3893316645374112,-1.2258604481217097,-1.6568486025056677,-0.2407399026832229,1.4996727306673063,-1.4726187497203682,-1.024072265699922,-0.2254002631292403,1.6844912339257392,0
-0.2222325557473359,-1.2275078733731857,-1.3759475039248028,-1.2281127466908843,0.880574452100229,-0.2396838673822081,1.5706387067135843,-1.5008533697692723,-1.0418394203989798,-0.221070465639534,0.0979600941573761,0
-0.2222325557473359,-1.254473924410607,-1.3612249272509334,-1.269404887125754,-0.3646424172897015,-0.2359123127357267,1.783536634852418,-1.4894559084651278,-1.0517100618984565,-0.2052418617017551,2.398430246821503,0
-0.2222325557473359,-1.1982946514159796,-1.359217303159042,-1.260395692849055,-0.8110409176370351,-0.2348562774347118,1.783536634852418,-1.4899739748880432,-1.0388782279491369,-0.2005571627784662,3.429675487670939,0
-0.2222325557473359,-1.2971701718865234,-1.365240175434716,-1.246881901434007,0.3401973201008252,-0.2309338606023712,1.854502610898696,-1.4897149416765854,-1.0467747411487185,-0.1830250319594913,1.2561278261882811,0
-0.2222325557473359,-1.317394710164589,-1.3605557192203028,-1.2581433942798803,0.2697133463617725,-0.2276148925134675,1.9254685869449737,-1.4832391113901395,-1.0339429071993984,-0.1670544674482794,0.9546869096322922,0
-0.2222325557473359,-1.292675830046953,-1.3605557192203028,-1.2754110166435533,-0.2706637856376313,-0.2254273908185083,1.996434562991252,-1.4868655763505492,-1.047761805298666,-0.1562654638673718,1.5099728085512196,0
-0.2222325557473359,-1.2769456336084577,-1.3632325513428247,-1.267903354746304,-0.3646424172897015,-0.2244467866104231,2.0674005390375294,-1.4853113770818025,-1.0507229977485089,-0.1514388043706499,0.1138254055550598,0
-0.202259723788912,-1.3106531974052338,-1.359217303159042,-1.2528880309518062,0.1287453988836671,-0.2241450622387046,1.996434562991252,-1.4910101077338749,-1.0418394203989798,-0.1499482183496035,1.2402625147905977,0
-0.202259723788912,-1.315147539244804,-1.3585480951284117,-1.2656510561771293,-0.0122225485944381,-0.2203735075922231,2.0674005390375294,-1.491787207368248,-1.0378911637991892,-0.1305706000759997,0.7167072386670378,0
-0.202259723788912,-1.3129003683250189,-1.3605557192203028,-1.267152588556579,-0.3646424172897015,-0.2178088504326157,2.0674005390375294,-1.487383642773465,-1.0230852015499745,-0.1167294441662826,1.176801269199863,0
-0.202259723788912,-1.317394710164589,-1.3565404710365203,-1.2573926280901555,-0.3176531014636664,-0.2193174722912083,1.996434562991252,-1.490492041310959,-1.0191369449501837,-0.1248921771386799,0.8753603526438741,0
-0.202259723788912,-1.3286305647635144,-1.353194430883368,-1.2641495237976794,-0.0357172065074557,-0.2187894546407009,2.0674005390375294,-1.485829443504718,-1.0181498808002358,-0.1221239459567365,1.0657440894160777,0
-0.202259723788912,-1.317394710164589,-1.3612249272509334,-1.2686541209360291,0.0817560830576321,-0.2162247974810935,1.996434562991252,-1.4933414066369952,-1.0339429071993984,-0.1078569083267204,0.9070909754392412,0
-0.202259723788912,-1.319641881084374,-1.3552020549752597,-1.2649002899874044,-0.0827065223334908,-0.2153950554588676,1.9254685869449737,-1.490492041310959,-1.0280205222997123,-0.1035980911237306,1.2561278261882811,0
-0.202259723788912,-1.3218890520041593,-1.348509974668955,-1.267152588556579,-0.2001798118985786,-0.2104920344184418,1.996434562991252,-1.4961907719630314,-1.043813548698875,-0.0756318581574306,0.9388215982346086,0
-0.202259723788912,-1.3061588555656636,-1.3525252228527378,-1.26114645903878,-0.0357172065074557,-0.2112463453477381,2.0674005390375294,-1.4863475099276335,-1.0290075864496604,-0.0797487147869874,1.6051646769373211,0
-0.202259723788912,-1.3016645137260934,-1.3431563104239117,-1.2626479914182298,0.0112721093185794,-0.2077765150729751,1.996434562991252,-1.4897149416765854,-1.032955843049451,-0.0593773724993526,1.652760611130372,0
-0.202259723788912,-1.3129003683250189,-1.3518560148221073,-1.2746602504538282,-0.2236744698115961,-0.2064187554002418,1.996434562991252,-1.4842752442359708,-1.0220981374000266,-0.0512146395269554,0.922956286836925,0
-0.202259723788912,-1.317394710164589,-1.343825518454542,-1.2664018223668545,0.0112721093185794,-0.2081536705376233,2.0674005390375294,-1.4928233402140794,-1.0270334581497649,-0.0617907022477136,0.8277644184508233,0
-0.202259723788912,-1.3286305647635144,-1.3458331425464334,-1.2558910957107057,-0.0827065223334908,-0.2010631478022382,1.9254685869449737,-1.4897149416765854,-1.0270334581497649,-0.0177829244834851,1.0340134666207104,0
-0.202259723788912,-1.3241362229239444,-1.3424871023932812,-1.2649002899874044,-0.1531904960725434,-0.1965372822264605,1.9254685869449737,-1.4941185062713689,-1.0290075864496604,0.0111060522101293,1.1292053350068123,0
-0.202259723788912,-1.315147539244804,-1.3411486863320203,-1.2581433942798803,-0.3646424172897015,-0.1975933175274752,1.9254685869449737,-1.493600439848453,-1.0082792393007591,0.004504885545495,1.1926665805975467,0
-0.202259723788912,-1.3218890520041593,-1.3384718542094989,-1.267152588556579,-0.1531904960725434,-0.196839006598179,1.996434562991252,-1.4925643070026215,-1.01222749590055,0.0093315450422169,0.9070909754392412,0
-0.202259723788912,-1.3061588555656636,-1.337802646178868,-1.2656510561771293,0.0112721093185794,-0.1981213351779827,1.996434562991252,-1.4933414066369952,-1.0142016242004452,0.0007429303495207,0.5580541246902015,0
-0.202259723788912,-1.319641881084374,-1.337802646178868,-1.2588941604696051,-0.0827065223334908,-0.1947269359961494,1.9254685869449737,-1.488678808830754,-1.0201240091001311,0.0231727009519339,1.2878584489836489,0
-0.202259723788912,-1.308406026485449,-1.3364642301176073,-1.2724079518846534,-0.1296958381595259,-0.1918605544648235,1.854502610898696,-1.4876426759849228,-1.0339429071993984,0.0428342403724037,1.3195890717790155,0
-0.202259723788912,-1.319641881084374,-1.334456606025716,-1.260395692849055,-0.176685153985561,-0.1905782258850198,1.854502610898696,-1.491787207368248,-1.0230852015499745,0.0483707027362905,1.2878584489836489,0
-0.202259723788912,-1.3286305647635144,-1.333118189964455,-1.2633987576079548,-0.0357172065074557,-0.1871083956102568,1.783536634852418,-1.48557041029326,-1.0230852015499745,0.0583789231633167,1.097474712211445,0
-0.202259723788912,-1.317394710164589,-1.3404794783013898,-1.2573926280901555,-0.0357172065074557,-0.1849963250082273,1.783536634852418,-1.4969678715974049,-1.0151886883503929,0.064270286960786,1.271993137585965,0
-0.202259723788912,-1.317394710164589,-1.3324489819338248,-1.2641495237976794,-0.3411477593766839,-0.1839402897072125,1.71257065880614,-1.4897149416765854,-1.0161757525003403,0.0671804787161624,1.1609359578021794,0
-0.202259723788912,-1.3218890520041593,-1.334456606025716,-1.269404887125754,-0.0592118644204732,-0.1785092510162792,1.71257065880614,-1.4980040044432363,-1.0151886883503929,0.0822282995000598,1.097474712211445,0
-0.202259723788912,-1.3331249066030848,-1.334456606025716,-1.260395692849055,-0.0357172065074557,-0.1740588165334311,1.71257065880614,-1.4951546391172,-1.0082792393007591,0.0945078891020139,1.0022828438253433,0
-0.202259723788912,-1.3129003683250189,-1.3277645257194115,-1.2716571856949286,0.0582614251446145,-0.1702872618869497,1.71257065880614,-1.4863475099276335,-1.0201240091001311,0.1045870898157565,1.1609359578021794,0
-0.202259723788912,-1.3286305647635144,-1.3351258140563464,-1.2641495237976794,-0.0592118644204732,-0.1688540711212867,1.6416046827598625,-1.4943775394828265,-1.0220981374000266,0.1084910055851639,0.9705522210299758,0
-0.202259723788912,-1.319641881084374,-1.3264261096581509,-1.26114645903878,0.0347667672315969,-0.1686277778424978,1.6416046827598625,-1.484016211024513,-1.0280205222997123,0.1092008084523289,1.2402625147905977,0
-0.202259723788912,-1.3308777356832997,-1.3264261096581509,-1.261897225228505,-0.0827065223334908,-0.1647053610101571,1.6416046827598625,-1.4954136723286575,-1.029994650599608,0.1195639303129375,0.9388215982346086,0
-0.202259723788912,-1.317394710164589,-1.328433733750042,-1.2588941604696051,-0.2236744698115961,-0.1597269088768016,1.4996727306673063,-1.493600439848453,-1.0260463939998172,0.1329082242156391,1.2402625147905977,0
-0.202259723788912,-1.317394710164589,-1.3264261096581509,-1.267903354746304,-0.0122225485944381,-0.1559553542303202,1.4996727306673063,-1.494895605905742,-1.0230852015499745,0.1426325234957992,1.224397203392914,0
-0.202259723788912,-1.2724512917688873,-1.3137111570761728,-1.2483834338134563,-0.7875462597240175,-0.1542958701858684,1.4996727306673063,-1.4985220708661515,-1.029994650599608,0.1468913406987891,1.6051646769373211,0
-0.202259723788912,-1.3218890520041593,-1.3204032373824772,-1.2543895633312558,-0.2236744698115961,-0.1518820752121202,1.2867748025284729,-1.4897149416765854,-1.0053180468509162,0.1532085862165574,1.0657440894160777,0
-0.202259723788912,-1.315147539244804,-1.3163879891986945,-1.2641495237976794,0.0582614251446145,-0.1478842272868499,1.1448428504359178,-1.5000762701348989,-1.0250593298498696,0.163429747503733,1.3195890717790155,0
-0.2821510516226076,-1.317394710164589,-0.9536772365970012,-1.2588941604696051,-0.0827065223334908,-0.2887140777864668,-0.5583405746747502,-1.2760125422238702,-0.14064985149676,-0.3048981842517176,0.7167072386670378,0
-0.2821510516226076,-1.319641881084374,-1.1249944924383912,-1.2581433942798803,0.1757347147097022,-0.2887140777864668,-0.2035106944433612,-1.237934660139568,-0.0409563723520456,-0.3066017111329135,1.1133400236091286,0
-0.2821510516226076,-1.3129003683250189,-1.1249944924383912,-1.2528880309518062,0.1287453988836671,-0.2887140777864668,0.293251137880584,-1.260211516324942,-0.0340469233024119,-0.3066017111329135,1.1609359578021794,0
-0.2821510516226076,-1.1960474804961945,-1.7232664718219963,-1.2341188762086837,-0.9989981809411757,-0.2887140777864668,0.435183089973139,-1.247777922174966,-0.2235632400923639,-0.3066017111329135,2.7791977203659104,0
-0.2821510516226076,-1.2702041208491022,-1.4301533544058678,-1.2709064195052036,-0.388137075202719,-0.2887140777864668,1.002910898343362,-1.2617657155936892,-1.9736279779495771,-0.3066017111329135,0.0503641599643252,0
-0.2821510516226076,-1.2499795825710365,-1.456921675631085,-1.261897225228505,-1.2339447600713511,-0.2887140777864668,1.2867748025284729,-1.2630608816509783,-2.0614766872949195,-0.3066017111329135,2.065258707470147,0
-0.2821510516226076,-1.2432380698116812,-1.4247996901608242,-1.2769125490230029,-1.2339447600713511,-0.2887140777864668,1.4287067546210286,-1.3192710885373289,-2.105894574042565,-0.3066017111329135,0.1614213397481106,0
-0.2821510516226076,-1.2432380698116812,-1.3458331425464334,-1.2874232756791515,1.2799836366215274,-0.2858476962551409,1.783536634852418,-1.25684408457599,-1.9084817440530315,-0.3036915193775371,0.5263235018948342,0
-0.2821510516226076,-1.1353738656619972,-1.3505175987608464,-1.2656510561771293,-4.4527128941547565,-0.2887140777864668,1.9254685869449737,-1.309427826501931,-1.9252618346021424,-0.306388770272764,2.223911821446983,0
-0.2821510516226076,-1.3129003683250189,-1.3351258140563464,-1.2641495237976794,0.3871866359268603,-0.2887140777864668,2.0674005390375294,-1.4806487792755612,-1.083296114696782,-0.3064597505594805,1.1133400236091286,0
-0.2821510516226076,-1.292675830046953,-1.4047234492419112,-1.2506357323826314,-0.7875462597240175,-0.2887140777864668,2.1383665150838067,-1.4692513179714164,-1.2422134428383564,-0.3061758294126145,1.224397203392914,0
-0.2821510516226076,-1.2949230009667383,-1.4917204932238672,-1.2551403295209809,-0.9520088651151404,-0.2887140777864668,2.2093324911300845,-1.449046727477705,-1.491940672775116,-0.3066017111329135,1.1292053350068123,0
-0.2821510516226076,-1.2050361641753349,-1.323080069504999,-1.2258604481217097,-1.0224928388541932,-0.2887140777864668,1.6416046827598625,-1.2418201583114357,-1.82458129130748,-0.3066017111329135,2.398430246821503,0
-0.2821510516226076,-1.2634626080897469,-1.6302465555643664,-1.3189554556475973,0.0817560830576321,-0.2887140777864668,1.1448428504359178,-1.2760125422238702,-2.4484058340744053,-0.3066017111329135,0.8436297298485069,0
-0.2821510516226076,-1.2252607024534006,-1.4890436611013456,-1.2769125490230029,-1.4688913392015268,-0.2853196786046335,1.002910898343362,-1.25684408457599,-1.9144041289527172,-0.3034785785173876,2.08112401886783,0
-0.2821510516226076,-1.3129003683250189,-1.322410861474368,-1.2664018223668545,0.4106812938398779,-0.2841127811177594,1.3577407785747506,-1.246223722906219,-1.8620897290054916,-0.3029107362236556,1.049878778018394,0
-0.2821510516226076,-1.2477324116512516,-1.6369386358706706,-1.246881901434007,0.6456278729700534,-0.2887140777864668,1.1448428504359178,-1.2125494054167,-2.4977590415717885,-0.3050401448251506,-0.0130970856264093,0
-0.2821510516226076,-1.3129003683250189,-1.4716442523049542,-1.2506357323826314,-0.3176531014636664,-0.286828300463226,1.2867748025284729,-1.2511453539239177,-1.9252618346021424,-0.3041174010978361,1.097474712211445,0
-0.2821510516226076,-1.3263833938437293,-1.46495217199865,-1.2543895633312558,-0.0827065223334908,-0.2887140777864668,0.7190469941582505,-1.2542537524614117,-1.991395132648636,-0.3055370068321661,1.0657440894160777,0
-0.2821510516226076,-1.153351233020278,-1.6744142855859747,-1.2844202109202518,-0.3176531014636664,-0.2887140777864668,0.435183089973139,-1.258916350267653,-1.7278490046126087,-0.3066017111329135,-2.170779435711383,0
-0.2821510516226076,-1.3218890520041593,-1.5044354458058455,-1.2633987576079548,0.0582614251446145,-0.2861494206268594,0.7190469941582505,-1.263578948073894,-1.845309638456381,-0.3038334799509701,1.1609359578021794,0
-0.2821510516226076,-1.288181488207383,-1.4194460259157806,-1.246881901434007,-0.5760943385068595,-0.2887140777864668,0.8609789462508063,-1.2213565346062665,-1.9242747704521936,-0.3050401448251506,0.621515370280936,0
-0.2821510516226076,-1.2791928045282426,-1.3424871023932812,-1.2581433942798803,-0.7405569438979824,-0.2879597668571705,1.1448428504359178,-1.2309407634302063,-1.9331583478017236,-0.3046142631048516,1.7003565453234228,0
-0.2821510516226076,-1.3218890520041593,-1.4716442523049542,-1.261897225228505,-0.1531904960725434,-0.285017954232915,1.002910898343362,-1.2135855382625316,-1.9598090798503105,-0.3033366179439546,1.2561278261882811,0
-0.2821510516226076,-1.317394710164589,-1.3645709674040856,-1.2754110166435533,-0.0357172065074557,-0.286828300463226,1.1448428504359178,-1.207886807610459,-1.9025593591533452,-0.3041174010978361,1.097474712211445,0
-0.2821510516226076,-1.234249386132541,-1.317057197229325,-1.171054516271792,0.0582614251446145,-0.2863757139056483,1.1448428504359178,-1.177320888658434,-1.780163404559835,-0.3039044602376866,1.1609359578021794,0
-0.2821510516226076,-1.1780701131379137,-1.3625633433121942,-1.1823160091176654,1.8203607686209315,-0.2872808870208038,1.1448428504359178,-1.1524537003584818,-1.9351324761016184,-0.3043303419579856,1.398915628767434,0
-0.2821510516226076,-1.2432380698116812,-1.456921675631085,-1.1965805667224387,0.3871866359268603,-0.2881860601359594,1.002910898343362,-1.0959844602606734,-1.850244959206119,-0.3046852433915681,1.271993137585965,0
-0.2821510516226076,-1.3286305647635144,-1.4341686025896505,-1.2566418619004307,-0.1296958381595259,-0.2865265760915075,1.002910898343362,-1.127068445635614,-1.836426061106852,-0.3039754405244031,1.049878778018394,0
-0.2821510516226076,-1.3263833938437293,-1.4448759310797372,-1.2656510561771293,-0.0592118644204732,-0.2887140777864668,1.002910898343362,-1.1260323127897829,-1.8581414724057004,-0.305962888552465,1.0816094008137611,0
-0.2821510516226076,-1.317394710164589,-1.4288149383446067,-1.2506357323826314,-0.176685153985561,-0.2871300248349446,1.002910898343362,-1.1185203496575054,-1.7821375328597302,-0.3042593616712691,0.922956286836925,0
-0.2821510516226076,-1.3241362229239444,-1.4435375150184764,-1.2641495237976794,-0.2236744698115961,-0.2884877845076779,1.002910898343362,-1.120592615349168,-1.8176718422578464,-0.3048272039650011,1.0816094008137611,0
-0.2821510516226076,-1.3129003683250189,-1.4201152339464111,-1.2724079518846534,-0.2236744698115961,-0.2872808870208038,1.002910898343362,-1.1216287481949994,-1.836426061106852,-0.3043303419579856,1.1609359578021794,0
-0.2821510516226076,-1.3218890520041593,-1.4488911792635195,-1.267903354746304,-0.1531904960725434,-0.2878843357642409,1.002910898343362,-1.1185203496575054,-1.8472837667562765,-0.3046142631048516,1.1292053350068123,0
-0.2821510516226076,-1.3286305647635144,-1.462275339876128,-1.260395692849055,-0.1531904960725434,-0.2858476962551409,1.002910898343362,-1.1231829474637465,-1.814710649808003,-0.3036915193775371,1.1133400236091286,0
-0.2821510516226076,-1.3286305647635144,-1.474321084427476,-1.2588941604696051,-0.0827065223334908,-0.2887140777864668,0.8609789462508063,-1.1177432500231317,-1.7781892762599396,-0.305962888552465,1.1292053350068123,0
-0.2821510516226076,-1.3218890520041593,-1.4843592048869323,-1.2686541209360291,-0.1296958381595259,-0.2887140777864668,0.8609789462508063,-1.1156709843314692,-1.8216200988576368,-0.3056789674055991,1.1450706464044955,0
-0.2821510516226076,-1.3106531974052338,-1.4595985077536064,-1.2746602504538282,-0.2471691277246137,-0.2873563181137334,0.8609789462508063,-1.1257732795783248,-1.8028658800086312,-0.3043303419579856,1.176801269199863,0
-0.2821510516226076,-1.3263833938437293,-1.5245116867247583,-1.2566418619004307,-0.1062011802465083,-0.2887140777864668,0.8609789462508063,-1.13950203978559,-1.808788264908317,-0.3053240659720166,0.9388215982346086,0
-0.2821510516226076,-1.2949230009667383,-1.5218348546022369,-1.2281127466908843,-0.0122225485944381,-0.2849425231399853,0.8609789462508063,-1.1185203496575054,-1.779176340409887,-0.3032656376572382,1.1450706464044955,1
-0.2821510516226076,-1.308406026485449,-1.4549140515391936,-1.2506357323826314,0.0347667672315969,-0.2869037315561557,0.8609789462508063,-1.099869958432541,-1.8117494573581605,-0.3041883813845526,0.7325725500647214,0
-0.2821510516226076,-1.3218890520041593,-1.4796747486725197,-1.267903354746304,-0.0592118644204732,-0.2866020071844372,0.7190469941582505,-1.1138577518512642,-1.7673315706105153,-0.3040464208111196,1.1292053350068123,0
-0.2821510516226076,-1.308406026485449,-1.474321084427476,-1.283669444730527,-0.0122225485944381,-0.2847916609541261,0.7190469941582505,-1.1009060912783724,-1.836426061106852,-0.3031946573705216,1.0816094008137611,0
-0.2821510516226076,-1.3241362229239444,-1.4535756354779328,-1.2649002899874044,0.0112721093185794,-0.2849425231399853,0.5771150420656947,-1.11074935331377,-1.756473864961091,-0.3032656376572382,1.097474712211445,0
-0.2821510516226076,-1.317394710164589,-1.474321084427476,-1.269404887125754,-0.2471691277246137,-0.2865265760915075,0.5771150420656947,-1.1102312868908546,-1.7298231329125036,-0.3039754405244031,1.1292053350068123,0
-0.2821510516226076,-1.3218890520041593,-1.4723134603355847,-1.267903354746304,-0.1062011802465083,-0.2845653676753372,0.5771150420656947,-1.097020593106505,-1.764370378160672,-0.3031236770838051,1.1450706464044955,0
-0.2821510516226076,-1.315147539244804,-1.4689674201824323,-1.2709064195052036,-0.2236744698115961,-0.2828304525379557,0.435183089973139,-1.1011651244898302,-1.743642031011771,-0.3023428939299237,1.1609359578021794,0
-0.2821510516226076,-1.317394710164589,-1.4957357414076498,-1.2731587180743784,-0.1062011802465083,-0.2873563181137334,0.293251137880584,-1.1045325562387822,-1.7189654272630794,-0.3043303419579856,1.1133400236091286,0
-0.2621782196641837,-1.3218890520041593,-1.4917204932238672,-1.2588941604696051,-0.2706637856376313,-0.280944675214715,0.293251137880584,-1.0941712277804685,-1.73574551781219,-0.3013491699158927,1.1450706464044955,0
-0.2821510516226076,-1.3308777356832997,-1.5004201976220628,-1.261897225228505,-0.0592118644204732,-0.2887140777864668,0.2222851618343061,-1.0915808956658903,-1.7663445064605674,-0.3052530856853001,1.097474712211445,0
-0.2821510516226076,-1.3241362229239444,-1.488374453070715,-1.267152588556579,-0.0827065223334908,-0.2887140777864668,0.0803532097417503,-1.0972796263179627,-1.755486800811143,-0.3066017111329135,1.1292053350068123,0
-0.2821510516226076,-1.3308777356832997,-1.4716442523049542,-1.25964492665933,-0.0827065223334908,-0.2845653676753372,0.0803532097417503,-1.0975386595294203,-1.7594350574109336,-0.3031236770838051,1.097474712211445,0
-0.2821510516226076,-1.315147539244804,-1.4890436611013456,-1.2739094842641034,-0.2001798118985786,-0.2826041592591669,0.293251137880584,-1.1340623423449756,-1.813723585658056,-0.3022009333564907,1.097474712211445,0
-0.2621782196641837,-1.3241362229239444,-1.5211656465716064,-1.2649002899874044,-0.176685153985561,-0.279737777727841,0.293251137880584,-1.1462369032834938,-1.8265554196073757,-0.3007103473354443,1.1133400236091286,0
-0.2821510516226076,-1.3106531974052338,-1.5198272305103453,-1.2731587180743784,0.0112721093185794,-0.2831321769096742,0.293251137880584,-1.156598231741807,-1.8216200988576368,-0.3024848545033567,1.224397203392914,0
-0.2821510516226076,-1.285934317287598,-1.550610799919345,-1.3016878332839246,0.1992293726227198,-0.2843390743965483,0.0803532097417503,-1.155303065684518,-1.849257895056172,-0.3030526967970887,1.018148155223027,0
-0.2821510516226076,-1.315147539244804,-1.5338805991535842,-1.2543895633312558,-0.2471691277246137,-0.2883369223218186,-0.0615787423508054,-1.1402791394199636,-1.7416679027118758,-0.3047562236782846,1.1926665805975467,1
-0.2821510516226076,-1.2994173428063085,-1.550610799919345,-1.2686541209360291,0.2227240305357374,-0.2823778659803779,0.0803532097417503,-1.1275865120585296,-1.7189654272630794,-0.3020589727830577,1.398915628767434,0
-0.2621782196641837,-1.3061588555656636,-1.519158022479715,-1.282918678540802,0.0112721093185794,-0.2783800180551076,0.0803532097417503,-1.128622644904361,-1.7752280838100964,-0.3000005444682793,1.0816094008137611,0
-0.2621782196641837,-1.3218890520041593,-1.5171503983878236,-1.2513864985723564,-0.0122225485944381,-0.2818498483298706,0.0803532097417503,-1.136393641248096,-1.8176718422578464,-0.3018460319229082,1.0816094008137611,0
-0.2821510516226076,-1.3263833938437293,-1.5071122779283672,-1.2649002899874044,-0.1062011802465083,-0.2829058836308853,0.293251137880584,-1.1340623423449756,-1.8255683554574271,-0.3023428939299237,1.097474712211445,0
-0.2821510516226076,-1.3218890520041593,-1.5312037670310623,-1.2566418619004307,-0.2001798118985786,-0.2839619189319002,0.2222851618343061,-1.1356165416137225,-1.7150171706632888,-0.3028397559369392,1.1450706464044955,0
-0.2621782196641837,-1.3218890520041593,-1.5204964385409758,-1.261897225228505,-0.4351263910287541,-0.2796623466349113,0.293251137880584,-1.1278455452699874,-1.8068141366084216,-0.3007103473354443,1.0340134666207104,0
-0.2621782196641837,-1.319641881084374,-1.5258501027860194,-1.2506357323826314,-0.1296958381595259,-0.2792851911702632,0.293251137880584,-1.1400201062085058,-1.7860857894595208,-0.3004974064752947,1.1292053350068123,0
-0.2621782196641837,-1.3263833938437293,-1.5787175372058233,-1.261897225228505,-0.0357172065074557,-0.2761170852672188,0.2222851618343061,-1.1304358773845655,-1.7781892762599396,-0.2987228993073823,1.176801269199863,0
-0.2621782196641837,-1.319641881084374,-1.5499415918887147,-1.2746602504538282,-0.1062011802465083,-0.2807938130288557,0.293251137880584,-1.1358755748251803,-1.780163404559835,-0.3012781896291762,1.0816094008137611,0
-0.2621782196641837,-1.315147539244804,-1.572025456899519,-1.2491342000031815,0.1052507409706496,-0.2807938130288557,0.0803532097417503,-1.1244781135210355,-1.8078012007583693,-0.3012781896291762,1.049878778018394,0
-0.2621782196641837,-1.3129003683250189,-1.531872975061693,-1.2746602504538282,0.0582614251446145,-0.2791343289844039,0.2222851618343061,-1.1314720102303972,-1.8176718422578464,-0.3004264261885783,1.1133400236091286,0
-0.2621782196641837,-1.3286305647635144,-1.5278577268779103,-1.2581433942798803,-0.0357172065074557,-0.2775502760328817,0.0803532097417503,-1.1369117076710118,-1.8393872535566944,-0.2995746627479803,1.0816094008137611,0
-0.2621782196641837,-1.3218890520041593,-1.5385650553679973,-1.267903354746304,-0.0592118644204732,-0.2785308802409669,0.0803532097417503,-1.133285242710602,-1.734758453662242,-0.3000715247549957,1.1450706464044955,0
-0.2621782196641837,-1.317394710164589,-1.5298653509698017,-1.2641495237976794,-0.2941584435506488,-0.2808692441217854,0.0093872336954724,-1.1319900766533126,-1.796943495108945,-0.3013491699158927,1.1926665805975467,0
-0.2621782196641837,-1.2814399754480277,-1.548603175827454,-1.2251096819319849,-0.0357172065074557,-0.2791343289844039,0.0803532097417503,-1.1180022832345895,-1.7959564309589977,-0.3004264261885783,1.351319694574383,0
-0.2621782196641837,-1.3263833938437293,-1.551949215980606,-1.26114645903878,-0.1531904960725434,-0.2753627743379225,0.0093872336954724,-1.1350984751908069,-1.776215147960044,-0.2982970175870833,1.176801269199863,0
-0.2621782196641837,-1.3241362229239444,-1.5599797123481711,-1.2528880309518062,-0.0592118644204732,-0.275061049966204,0.0093872336954724,-1.1192974492918788,-1.687379374464754,-0.2981550570136503,1.0657440894160777,0
-0.2621782196641837,-1.315147539244804,-1.555295256133758,-1.2528880309518062,-0.0827065223334908,-0.2752119121520632,-0.2035106944433612,-1.1356165416137225,-1.8344519328069568,-0.2982260373003668,1.2878584489836489,0
-0.2621782196641837,-1.153351233020278,-1.676421909677866,-1.2326173438292338,1.726382136968861,-0.2818498483298706,-0.345442646535917,-1.0923579953002638,-1.6656639631659054,-0.3018460319229082,3.033042702728848,0
-0.2821510516226076,-1.3129003683250189,-1.5894248656959102,-1.2626479914182298,0.2697133463617725,-0.2830567458167446,-0.4873745986284723,-1.1249961799439512,-1.7653574423106195,-0.3024138742166402,0.8277644184508233,0
-0.2821510516226076,-1.3286305647635144,-1.6121779387373447,-1.26114645903878,0.0817560830576321,-0.2822270037945187,-0.4873745986284723,-1.112562585793975,-1.7150171706632888,-0.3020589727830577,1.0022828438253433,0
-0.2621782196641837,-1.3106531974052338,-1.6061550664616708,-1.2483834338134563,-0.3646424172897015,-0.2758153608955003,-0.2744766704896391,-1.117225183600216,-1.7071206574637077,-0.2985809387339493,1.097474712211445,0
-0.2621782196641837,-1.3241362229239444,-1.6115087307067142,-1.2686541209360291,-0.1531904960725434,-0.2734015659217521,-0.0615787423508054,-1.1229239142522884,-1.734758453662242,-0.2970903527129029,1.0340134666207104,0
-0.2621782196641837,-1.3263833938437293,-1.6322541796562575,-1.260395692849055,-0.1296958381595259,-0.2734769970146818,-0.0615787423508054,-1.1182613164460475,-1.6478968084668475,-0.2971613329996194,1.1926665805975467,1
-0.2621782196641837,-1.3286305647635144,-1.6269005154112142,-1.261897225228505,-0.1062011802465083,-0.2740050146651892,-0.1325447183970833,-1.114634851485638,-1.6301296537677894,-0.2974452541464853,1.1133400236091286,0
-0.2621782196641837,-1.3218890520041593,-1.659022500881475,-1.2724079518846534,-0.0827065223334908,-0.2741558768510484,-0.0615787423508054,-1.115930017542927,-1.6844181820149111,-0.2975872147199184,1.0816094008137611,0
-0.2621782196641837,-1.2746984626886724,-1.6195392270742794,-1.292678639007226,0.1287453988836671,-0.2712140642267929,0.0093872336954724,-1.1198155157147944,-1.628155525467894,-0.2956707469785729,1.5099728085512196,0
-0.2621782196641837,-1.2994173428063085,-1.5994629861553664,-1.26114645903878,0.9745530837522992,-0.2709123398550744,0.0093872336954724,-1.0972796263179627,-1.5758411255206677,-0.2954578061184234,1.0022828438253433,0
-0.2621782196641837,-1.3263833938437293,-1.6295773475337358,-1.260395692849055,0.1287453988836671,-0.2692528558106226,0.0093872336954724,-1.1099722536793966,-1.6390132311173184,-0.2943221215309595,1.0340134666207104,0
-0.2621782196641837,-1.290428659127168,-1.6188700190436491,-1.2971832361455753,0.1052507409706496,-0.2706860465762855,0.0093872336954724,-1.1418333386887105,-1.6360520386674753,-0.2953158455449904,1.0816094008137611,0
-0.2621782196641837,-1.2791928045282426,-1.6335925957175186,-1.2784140814024527,-0.9520088651151404,-0.2699317356469892,0.0093872336954724,-1.1501224014553617,-1.743642031011771,-0.294818983537975,1.2561278261882811,0
-0.2621782196641837,-1.2522267534908216,-1.6690606213409316,-1.2025866962402376,-0.5056103647678069,-0.2673670784873818,0.0803532097417503,-1.188718349962579,-1.7317972612123993,-0.292973496083346,1.2402625147905977,0
-0.2621782196641837,-1.2769456336084577,-1.5726946649301494,-1.282918678540802,0.0582614251446145,-0.2678196650449596,0.0093872336954724,-1.1560801653188917,-1.8235942271575325,-0.2933283975169285,0.320074453724947,0
-0.2621782196641837,-1.236496557052326,-1.642961508146345,-1.1778114119793162,-0.5995889964198772,-0.2691774247176929,0.0803532097417503,-1.1610017963365906,-1.886766332754183,-0.2942511412442429,1.0340134666207104,0
-0.2422053877057598,-1.292675830046953,-1.6289081395031055,-1.2558910957107057,0.457670609665913,-0.26367095493383,0.0803532097417503,-1.187164150693832,-1.7525256083613003,-0.2901342846146861,1.4782421857558523,0
-0.2422053877057598,-1.288181488207383,-1.6222160591968011,-1.2941801713866756,-0.3646424172897015,-0.2641989725843374,-0.0615787423508054,-1.1708450583719885,-1.720939555562975,-0.2904891860482686,1.1133400236091286,0
-0.2621782196641837,-1.290428659127168,-1.5211656465716064,-1.2739094842641034,0.1522400567966848,-0.2678196650449596,-0.2035106944433612,-1.2008929109010975,-1.9943563250984784,-0.2933283975169285,0.4787275677017832,0
-0.2621782196641837,-1.2994173428063085,-1.5827327853896058,-1.2416265381059324,0.2227240305357374,-0.2669144919298041,-0.2035106944433612,-1.1863870510594583,-1.990408068498688,-0.2926185946497635,1.1609359578021794,0
-0.2422053877057598,-1.2589682662501769,-1.5291961429391712,-1.288924808058601,1.3974569261866152,-0.2637463860267597,-0.0615787423508054,-1.142351405111626,-1.9716538496496825,-0.2901342846146861,1.0340134666207104,0
-0.2422053877057598,-1.2949230009667383,-1.545926343704932,-1.2934294051969506,-0.2471691277246137,-0.2602765557519967,0.0093872336954724,-1.1547849992616024,-1.8620897290054916,-0.2871531125725932,1.0657440894160777,0
-0.2422053877057598,-1.308406026485449,-1.479005540641889,-1.2573926280901555,0.4341759517528955,-0.258390778428756,0.0803532097417503,-1.1229239142522884,-1.7594350574109336,-0.2850946842578148,1.1450706464044955,0
-0.2422053877057598,-1.3061588555656636,-1.5586412962869105,-1.2754110166435533,0.3167026621878077,-0.2579381918711783,0.0803532097417503,-1.1467549697064094,-1.866037985605282,-0.2838880193836343,1.0816094008137611,0
-0.2422053877057598,-1.317394710164589,-1.5305345590004324,-1.270155653315479,-0.176685153985561,-0.257787329685319,0.0803532097417503,-1.1312129770189394,-1.8058270724584744,-0.2835331179500518,1.1292053350068123,0
-0.2422053877057598,-1.319641881084374,-1.5392342633986278,-1.2626479914182298,-0.2706637856376313,-0.2580136229641079,-0.1325447183970833,-1.1369117076710118,-1.8038529441585789,-0.2840299799570673,1.176801269199863,0
-0.2422053877057598,-1.315147539244804,-1.5291961429391712,-1.2656510561771293,0.1052507409706496,-0.2571084498489523,0.2222851618343061,-1.1483091689751566,-1.871960370504968,-0.2814746896352734,1.2402625147905977,0
-0.2422053877057598,-1.3061588555656636,-1.5532876320418667,-1.2438788366751072,-0.2236744698115961,-0.2571084498489523,0.293251137880584,-1.1439056043803733,-1.8295166120572184,-0.2816166502087064,1.1609359578021794,0
-0.2422053877057598,-1.308406026485449,-1.4964049494382805,-1.2416265381059324,-0.1296958381595259,-0.2564295700125857,0.293251137880584,-1.1213697149835415,-1.7485773517615095,-0.279558221893928,1.1292053350068123,0
-0.2821510516226076,-1.317394710164589,-1.4187768178851503,-1.2506357323826314,-0.176685153985561,-0.2887140777864668,-2.403455951877973,-1.18379671894488,-1.8295166120572184,-0.3048981842517176,1.1133400236091286,0
-0.2821510516226076,-1.2836871463678128,-1.408738697425694,-1.282918678540802,-0.6700729701589297,-0.2887140777864668,-1.9066941195540288,-1.1501224014553617,-1.8216200988576368,-0.3066017111329135,1.2561278261882811,0
-0.2821510516226076,-1.3106531974052338,-1.4421990989572155,-1.2431280704853824,-0.1296958381595259,-0.2887140777864668,-1.480898263276362,-1.0946892942033843,-1.682444053715016,-0.3066017111329135,1.1450706464044955,0
-0.2821510516226076,-1.2949230009667383,-1.4100771134869547,-1.246881901434007,-0.5056103647678069,-0.2887140777864668,-0.9841364309524172,-1.119038416080421,-1.756473864961091,-0.3066017111329135,1.2561278261882811,0
-0.2821510516226076,-1.317394710164589,-1.4314917704671286,-1.246131135244282,-0.0122225485944381,-0.2887140777864668,-0.6293065507210281,-1.0226780614181057,-1.6242072688681033,-0.3066017111329135,1.018148155223027,0
-0.2821510516226076,-1.3129003683250189,-1.3324489819338248,-1.2724079518846534,0.246218688448755,-0.2887140777864668,-0.345442646535917,-1.038220054105576,-1.6212460764182606,-0.3066017111329135,0.9864175324276596,0
-0.2821510516226076,-1.3039116846458787,-1.3291029417806726,-1.2769125490230029,-0.3411477593766839,-0.2887140777864668,-0.1325447183970833,-1.0661956409430222,-1.6449356160170043,-0.3066017111329135,1.176801269199863,0
-0.2821510516226076,-1.319641881084374,-1.4194460259157806,-1.2641495237976794,-0.2236744698115961,-0.2887140777864668,0.0803532097417503,-1.0786292350929985,-1.6370391028174232,-0.3066017111329135,1.1926665805975467,0
-0.2821510516226076,-1.2994173428063085,-1.4241304821301937,-1.2709064195052036,-0.4351263910287541,-0.2887140777864668,0.0803532097417503,-1.0967615598950469,-1.7475902876115617,-0.3058919082657486,1.303723760381332,0
-0.2821510516226076,-1.3061588555656636,-1.4609369238148673,-1.2551403295209809,-0.0827065223334908,-0.2887140777864668,0.0093872336954724,-1.022419028206648,-1.3873118728806633,-0.3066017111329135,1.525838119948903,0
-0.2821510516226076,-1.3129003683250189,-1.4187768178851503,-1.2731587180743784,-0.1062011802465083,-0.2887140777864668,0.0803532097417503,-1.022419028206648,-1.33795866538328,-0.306530730846197,1.2085318919952304,0
-0.2821510516226076,-1.317394710164589,-1.4421990989572155,-1.2521372647620812,0.0347667672315969,-0.288261491228889,0.0803532097417503,-0.9631004227828032,-1.2886054578858963,-0.3047562236782846,0.922956286836925,0
-0.2821510516226076,-1.3218890520041593,-1.3618941352815637,-1.2506357323826314,-0.1062011802465083,-0.2872808870208038,0.293251137880584,-1.033039389876419,-1.5314232387730229,-0.3043303419579856,1.0657440894160777,0
-0.2821510516226076,-1.3286305647635144,-1.3036730366167164,-1.2558910957107057,-0.1296958381595259,-0.2887140777864668,0.0803532097417503,-1.0273406592243466,-1.5501774576220284,-0.3066017111329135,1.0022828438253433,0
-0.2821510516226076,-1.3129003683250189,-1.4535756354779328,-1.2739094842641034,-0.1531904960725434,-0.2887140777864668,-0.2035106944433612,-1.0213828953608166,-1.4455486577275756,-0.3066017111329135,1.1926665805975467,0
-0.2821510516226076,-1.3129003683250189,-1.3578788870977812,-1.25964492665933,-0.3411477593766839,-0.2887140777864668,-0.345442646535917,-1.0136118990170813,-1.477134710525901,-0.3066017111329135,1.271993137585965,0
-0.2821510516226076,-1.3218890520041593,-1.4830207888256717,-1.270155653315479,0.0582614251446145,-0.2887140777864668,-0.4164086225821944,-1.0369248880482869,-1.4731864539261104,-0.3064597505594805,1.049878778018394,0
-0.2821510516226076,-1.3241362229239444,-1.4381838507734328,-1.2521372647620812,-0.0357172065074557,-0.2887140777864668,-0.6293065507210281,-1.020605795726443,-1.4366650803780467,-0.3056789674055991,1.018148155223027,0
-0.2821510516226076,-1.3263833938437293,-1.4689674201824323,-1.2558910957107057,0.0112721093185794,-0.2887140777864668,-0.700272526767306,-0.9887447107171292,-1.394221321930297,-0.3051821053985836,0.9864175324276596,0
-0.2821510516226076,-1.3308777356832997,-1.328433733750042,-1.260395692849055,-0.0122225485944381,-0.2887140777864668,-0.7712385028135839,-1.0369248880482869,-1.5245137897233891,-0.3058209279790321,1.0022828438253433,0
-0.2821510516226076,-1.315147539244804,-1.3137111570761728,-1.2686541209360291,-0.2236744698115961,-0.2883369223218186,-0.7712385028135839,-1.009467367633756,-1.4514710426272617,-0.3047562236782846,1.176801269199863,0
-0.2821510516226076,-1.317394710164589,-1.3893316645374112,-1.2664018223668545,-0.1531904960725434,-0.2887140777864668,-0.700272526767306,-1.04132845264307,-1.682444053715016,-0.3051111251118671,1.2561278261882811,0
-0.2821510516226076,-1.3218890520041593,-1.4957357414076498,-1.261897225228505,-0.2471691277246137,-0.2832076080026039,-0.5583405746747502,-1.0006602384441894,-1.3182173823843266,-0.3024848545033567,1.1926665805975467,0
-0.2621782196641837,-1.3263833938437293,-1.383978000292368,-1.26114645903878,-0.176685153985561,-0.2808692441217854,-0.4873745986284723,-1.049099448986805,-1.3882989370306111,-0.3013491699158927,1.1292053350068123,0
-0.2621782196641837,-1.3286305647635144,-1.4067310733338023,-1.25964492665933,-0.0122225485944381,-0.2783800180551076,-0.2744766704896391,-0.9698352862807068,-1.3103208691847454,-0.3000005444682793,0.922956286836925,0
-0.2621782196641837,-1.3263833938437293,-1.3859856243842592,-1.2686541209360291,-0.0827065223334908,-0.2770976894753039,-0.2035106944433612,-1.04132845264307,-1.465289940726529,-0.2992907416011143,1.0816094008137611,0
-0.2621782196641837,-1.3331249066030848,-1.290958084034738,-1.2633987576079548,-0.0827065223334908,-0.2786063113338965,-0.2035106944433612,-1.0169793307660333,-1.5264879180232844,-0.3001425050417122,1.0022828438253433,0
-0.2621782196641837,-1.317394710164589,-1.5024278217139542,-1.267152588556579,-0.176685153985561,-0.2816989861440113,-0.1325447183970833,-1.029412924916009,-1.5363585595227611,-0.3017040713494752,1.224397203392914,0
-0.2621782196641837,-1.3218890520041593,-1.4488911792635195,-1.2626479914182298,-0.2471691277246137,-0.2798132088207706,-0.0615787423508054,-1.0040276701931414,-1.2974890352354256,-0.3007813276221607,1.1450706464044955,0
-0.2621782196641837,-1.319641881084374,-1.3645709674040856,-1.2709064195052036,-0.0357172065074557,-0.2765696718247966,0.0093872336954724,-1.0563523789076246,-1.4228461822787792,-0.2990068204542483,1.1133400236091286,0
-0.2621782196641837,-1.3218890520041593,-1.4288149383446067,-1.2543895633312558,0.0347667672315969,-0.2795869155419817,-0.1325447183970833,-1.0084312347879247,-1.379415359681082,-0.3006393670487277,0.9546869096322922,0
-0.2621782196641837,-1.3286305647635144,-1.3578788870977812,-1.2641495237976794,0.0112721093185794,-0.2790588978914743,-0.1325447183970833,-1.018792563246238,-1.5541257142218192,-0.3004264261885783,1.0340134666207104,1
-0.2821510516226076,-1.3286305647635144,-1.333118189964455,-1.2581433942798803,-0.0122225485944381,-0.2824532970733076,-0.0615787423508054,-1.0351116555680815,-1.4998371859746975,-0.3021299530697742,1.0022828438253433,0
-0.2621782196641837,-1.3061588555656636,-1.3926777046905634,-1.2716571856949286,-0.2706637856376313,-0.2792097600773335,-0.1325447183970833,-1.0086902679993826,-1.429755631328413,-0.3004264261885783,1.2561278261882811,0
-0.2621782196641837,-1.315147539244804,-1.3679170075572376,-1.267152588556579,-0.2471691277246137,-0.2798886399137002,-0.1325447183970833,-1.0304490577618408,-1.6153236915185747,-0.3008523079088772,1.2402625147905977,0
-0.2621782196641837,-1.3286305647635144,-1.4749902924581064,-1.2581433942798803,-0.0827065223334908,-0.2787571735197558,-0.1325447183970833,-1.011280600113961,-1.3458551785828614,-0.3002134853284288,1.1133400236091286,0
-0.2821510516226076,-1.308406026485449,-1.3779551280166942,-1.2438788366751072,-0.176685153985561,-0.2833584701884631,-0.2744766704896391,-1.0421055522774434,-1.4840441595755347,-0.3025558347900732,1.1609359578021794,0
-0.2821510516226076,-1.3106531974052338,-1.4127539456094764,-1.2446296028648325,0.0347667672315969,-0.285621402976352,-0.4164086225821944,-0.95869685818802,-1.3399327936831753,-0.3036205390908206,0.922956286836925,0
-0.2821510516226076,-1.319641881084374,-1.369924631649129,-1.2739094842641034,-0.0592118644204732,-0.2830567458167446,-0.4873745986284723,-1.0325213234535036,-1.5235267255734417,-0.3024138742166402,1.0816094008137611,0
-0.2621782196641837,-1.3286305647635144,-1.3137111570761728,-1.2626479914182298,-0.1531904960725434,-0.2794360533561225,-0.345442646535917,-1.0167202975545755,-1.477134710525901,-0.3005683867620112,1.0657440894160777,0
-0.2821510516226076,-1.308406026485449,-1.410746321517585,-1.2739094842641034,-0.1531904960725434,-0.2822270037945187,-0.345442646535917,-1.0320032570305877,-1.595582408519621,-0.3020589727830577,1.2561278261882811,0
-0.2621782196641837,-1.315147539244804,-1.4100771134869547,-1.2626479914182298,-0.3176531014636664,-0.2804920886571372,-0.345442646535917,-1.0102444672681294,-1.4287685671784651,-0.3011362290557432,1.271993137585965,0
-0.2621782196641837,-1.319641881084374,-1.450898803355411,-1.2709064195052036,-0.0122225485944381,-0.2784554491480372,-0.345442646535917,-1.0177564304004068,-1.4248203105786748,-0.3000715247549957,1.1133400236091286,0
-0.2621782196641837,-1.3263833938437293,-1.3859856243842592,-1.2558910957107057,-0.0827065223334908,-0.2775502760328817,-0.2744766704896391,-1.0299309913389252,-1.4475227860274709,-0.2995746627479803,1.097474712211445,0
-0.2621782196641837,-1.319641881084374,-1.4140923616707373,-1.2521372647620812,0.0347667672315969,-0.2785308802409669,-0.2744766704896391,-0.9770882162015264,-1.370531782331553,-0.3000715247549957,0.9546869096322922,0
-0.2621782196641837,-1.3263833938437293,-1.3471715586076942,-1.267903354746304,-0.0122225485944381,-0.2757399298025706,-0.1325447183970833,-1.0535030135815884,-1.530436174623075,-0.2985099584472328,1.049878778018394,0
-0.2621782196641837,-1.3241362229239444,-1.337802646178868,-1.260395692849055,-0.2236744698115961,-0.2777765693116706,-0.1325447183970833,-1.026304526378515,-1.5136560840739648,-0.2997166233214133,1.1450706464044955,0
-0.2621782196641837,-1.2702041208491022,-1.3873240404455205,-1.313700092319523,-0.176685153985561,-0.2776257071258113,-0.2035106944433612,-1.0625691759826126,-1.716991298963184,-0.2996456430346968,1.2402625147905977,1
-0.2621782196641837,-1.319641881084374,-1.446214347140998,-1.2633987576079548,-0.2471691277246137,-0.2791343289844039,-0.345442646535917,-1.0242322606868528,-1.406066091729669,-0.3004264261885783,1.176801269199863,0
-0.2621782196641837,-1.288181488207383,-1.4053926572725417,-1.29943553471475,0.0112721093185794,-0.2752119121520632,-0.2035106944433612,-1.1477911025522407,-1.7841116611596255,-0.2981550570136503,1.1450706464044955,0
-0.2621782196641837,-1.3129003683250189,-1.4040542412112809,-1.2476326676237317,0.0582614251446145,-0.2734015659217521,-0.0615787423508054,-1.0949483274148422,-1.8048400083085263,-0.2970903527129029,1.0816094008137611,0
-0.2621782196641837,-1.3218890520041593,-1.3893316645374112,-1.2664018223668545,0.1757347147097022,-0.2703088911116373,0.0093872336954724,-1.0641233752513597,-1.7653574423106195,-0.2951029046848409,1.0022828438253433,0
-0.2621782196641837,-1.285934317287598,-1.412084737578846,-1.2949309375764004,-0.2706637856376313,-0.2715157885985114,0.0803532097417503,-1.2112542393594108,-1.8936757818038168,-0.2958836878387224,1.224397203392914,0
-0.2621782196641837,-1.3218890520041593,-1.4301533544058678,-1.269404887125754,-0.0592118644204732,-0.2682722516025374,0.0803532097417503,-1.1894954495969527,-1.8423484460065376,-0.293683298950511,1.1450706464044955,0
-0.2621782196641837,-1.3241362229239444,-1.444206723049107,-1.260395692849055,-0.1531904960725434,-0.2688757003459744,0.0803532097417503,-1.201151944112555,-1.9716538496496825,-0.2940382003840935,1.1926665805975467,0
-0.2422053877057598,-1.319641881084374,-1.4247996901608242,-1.2536387971415308,0.0817560830576321,-0.2647269902348448,0.2222851618343061,-1.163592128451169,-1.8571544082557525,-0.2909150677685675,1.0816094008137611,0
-0.2422053877057598,-1.3129003683250189,-1.4174384018238897,-1.2506357323826314,0.246218688448755,-0.2639726793055486,0.1513191857880282,-1.2387117597739417,-1.9213135780023511,-0.2903472254748356,1.0816094008137611,0
-0.2422053877057598,-1.3263833938437293,-1.392008496659933,-1.260395692849055,0.1052507409706496,-0.2641989725843374,0.293251137880584,-1.156598231741807,-1.8877533969041305,-0.2905601663349851,1.097474712211445,0
-0.2422053877057598,-1.3241362229239444,-1.3505175987608464,-1.25964492665933,0.1052507409706496,-0.2612571599600819,0.293251137880584,-1.1040144898158664,-1.891701653503921,-0.2880758562999077,1.0816094008137611,0
-0.2422053877057598,-1.3218890520041593,-1.3759475039248028,-1.26114645903878,-0.4586210489417717,-0.2608800044954338,0.293251137880584,-1.1656643941428315,-1.8403743177066425,-0.2877209548663252,1.049878778018394,0
-0.2422053877057598,-1.319641881084374,-1.3846472083229984,-1.25964492665933,-0.3411477593766839,-0.26367095493383,0.2222851618343061,-1.14908626860953,-1.8877533969041305,-0.2901342846146861,1.1292053350068123,0
-0.2422053877057598,-1.3061588555656636,-1.4053926572725417,-1.2709064195052036,-0.4586210489417717,-0.2608800044954338,0.2222851618343061,-1.1692908591032414,-1.8285295479072703,-0.2877209548663252,1.1609359578021794,0
-0.2422053877057598,-1.3241362229239444,-1.4763287085193673,-1.260395692849055,-0.0592118644204732,-0.2609554355883634,0.1513191857880282,-1.169808925526157,-2.003239902448008,-0.2877919351530417,1.2085318919952304,0
-0.2422053877057598,-1.3308777356832997,-1.4549140515391936,-1.2626479914182298,0.0347667672315969,-0.2582399162428967,0.293251137880584,-1.1226648810408306,-1.8008917517087355,-0.2845978222507993,1.0340134666207104,0
-0.2422053877057598,-1.317394710164589,-1.421453650007672,-1.2566418619004307,0.2227240305357374,-0.2574856053136005,0.293251137880584,-1.2003748444781817,-1.8630767931554388,-0.2826813545094538,1.0816094008137611,0
-0.2422053877057598,-1.3129003683250189,-1.3766167119554331,-1.2498849661929066,0.2932080042747901,-0.2583153473358264,0.2222851618343061,-1.1102312868908546,-1.891701653503921,-0.2849527236843818,1.018148155223027,0
-0.2422053877057598,-1.3286305647635144,-1.359217303159042,-1.2633987576079548,0.0582614251446145,-0.2581644851499671,0.0803532097417503,-1.071376305172179,-1.8117494573581605,-0.2845268419640828,1.0022828438253433,0
-0.2422053877057598,-1.319641881084374,-1.3257569016275204,-1.2769125490230029,-0.0827065223334908,-0.2574856053136005,0.293251137880584,-1.1537488664157711,-1.8907145893539736,-0.2826103742227374,1.0340134666207104,0
-0.2422053877057598,-1.3061588555656636,-1.3070190767698684,-1.2806663799716276,-0.3176531014636664,-0.2565050011055153,0.0803532097417503,-1.1288816781158189,-1.8226071630075844,-0.2797711627540775,1.0657440894160777,0
-0.2422053877057598,-1.3061588555656636,-1.3926777046905634,-1.2686541209360291,-0.5056103647678069,-0.2575610364065301,0.0093872336954724,-1.1519356339355662,-1.8620897290054916,-0.2827523347961704,1.1609359578021794,0
-0.2422053877057598,-1.3129003683250189,-1.442868306987846,-1.260395692849055,-0.3411477593766839,-0.2574856053136005,0.0803532097417503,-1.141574305477253,-1.9094688082029792,-0.2826813545094538,1.303723760381332,0
-0.2422053877057598,-1.308406026485449,-1.468298212151802,-1.2438788366751072,-0.1296958381595259,-0.2563541389196561,0.0803532097417503,-1.083809899322155,-1.6459226801669522,-0.279416261320495,1.1926665805975467,0
-0.2422053877057598,-1.2836871463678128,-1.4288149383446067,-1.2363711747778583,0.0112721093185794,-0.255750690176219,0.0093872336954724,-1.1464959364949516,-1.9440160534511477,-0.2776417541525826,1.5417034313465867,0
-0.2422053877057598,-1.3218890520041593,-1.4227920660689328,-1.2558910957107057,0.0817560830576321,-0.2558261212691486,-0.0615787423508054,-1.150899501089735,-1.764370378160672,-0.2778546950127321,1.0816094008137611,0
-0.2422053877057598,-1.315147539244804,-1.4488911792635195,-1.2528880309518062,0.2697133463617725,-0.2568821565701634,-0.0615787423508054,-1.067749840211769,-1.8393872535566944,-0.2809068473415414,0.9864175324276596,0
-0.2422053877057598,-1.3129003683250189,-1.353194430883368,-1.2739094842641034,0.1052507409706496,-0.2543929305034857,0.0093872336954724,-1.0721534048065526,-1.8226071630075844,-0.2735958778097422,1.1133400236091286,0
-0.2422053877057598,-1.3286305647635144,-1.3103651169230206,-1.2649002899874044,-0.1062011802465083,-0.2546946548752042,-0.0615787423508054,-1.1257732795783248,-1.758447993260986,-0.2746605821104896,1.049878778018394,0
-0.2422053877057598,-1.2702041208491022,-1.3705938396797597,-1.3227092865962218,-0.1531904960725434,-0.2546192237822746,0.0093872336954724,-1.0923579953002638,-1.507733699174279,-0.2744476412503401,1.0657440894160777,0
-0.2422053877057598,-1.2634626080897469,-1.4234612740995634,-1.200334397671063,-0.2236744698115961,-0.2545437926893449,-0.0615787423508054,-1.0195696628806117,-1.370531782331553,-0.2740927398167577,1.1450706464044955,0
-0.2422053877057598,-1.2634626080897469,-1.4870360370094542,-1.2138481890861117,-0.2471691277246137,-0.2544683615964153,-0.0615787423508054,-1.0408103862201543,-1.6330908462176326,-0.2740217595300412,1.4147809401651177,0
-0.2422053877057598,-1.317394710164589,-1.454244843508563,-1.270155653315479,-0.1531904960725434,-0.2534123262954005,-0.0615787423508054,-1.0029915373473102,-1.3132820616345884,-0.2706147057676493,1.1609359578021794,0
-0.2422053877057598,-1.3016645137260934,-1.5151427742959325,-1.2799156137819026,0.0582614251446145,-0.251677411158019,-0.0615787423508054,-1.0467681500836843,-1.487005352025378,-0.265149223690479,1.2402625147905977,0
-0.2422053877057598,-1.292675830046953,-1.4401914748653242,-1.2341188762086837,-0.0122225485944381,-0.2530351708307524,-0.1325447183970833,-1.0625691759826126,-1.4485098501774187,-0.2695500014669018,1.2878584489836489,0
-0.2422053877057598,-1.3241362229239444,-1.4716442523049542,-1.26114645903878,0.0582614251446145,-0.2529597397378227,-0.2744766704896391,-1.0281177588587205,-1.5353714953728133,-0.2691951000333193,0.8594950412461906,0
-0.2422053877057598,-1.315147539244804,-1.436845434712172,-1.2746602504538282,-0.0357172065074557,-0.2528843086448931,-0.4164086225821944,-0.9750159505098638,-1.379415359681082,-0.2690531394598863,0.9070909754392412,0
-0.2422053877057598,-1.3286305647635144,-1.3705938396797597,-1.261897225228505,-0.0122225485944381,-0.2536386195741894,-0.700272526767306,-1.0454729840263954,-1.6212460764182606,-0.2713954889215307,1.0816094008137611,0
-0.2821510516226076,-1.3263833938437293,-1.5138043582346716,-1.2633987576079548,-0.1062011802465083,-0.2887140777864668,-2.474421927924251,-1.0040276701931414,-1.2767606880865248,-0.3048981842517176,1.1609359578021794,0
-0.2821510516226076,-1.3286305647635144,-1.4502295953247806,-1.261897225228505,-0.1296958381595259,-0.2887140777864668,-2.1195920476928625,-1.0185335300347804,-1.4465357218775234,-0.3066017111329135,1.1133400236091286,0
-0.2821510516226076,-1.2994173428063085,-1.4957357414076498,-1.2769125490230029,-0.2471691277246137,-0.2887140777864668,-1.835728143507751,-1.025527426744142,-1.4968759935248543,-0.3066017111329135,1.351319694574383,0
-0.2821510516226076,-1.319641881084374,-1.4763287085193673,-1.2754110166435533,-0.0122225485944381,-0.2887140777864668,-1.5518642393226398,-1.0369248880482869,-1.5087207633242263,-0.3066017111329135,1.0022828438253433,0
-0.2821510516226076,-1.3286305647635144,-1.5245116867247583,-1.26114645903878,-0.0592118644204732,-0.2887140777864668,-1.3389663111838062,-1.0351116555680815,-1.63407791036758,-0.3066017111329135,1.1450706464044955,0
-0.2821510516226076,-1.3241362229239444,-1.3987005769662373,-1.26114645903878,0.1052507409706496,-0.2848670920470557,-0.9131704549061392,-1.034075522722251,-1.716991298963184,-0.3032656376572382,0.922956286836925,0
-0.2821510516226076,-1.315147539244804,-1.317726405259955,-1.25964492665933,-0.2236744698115961,-0.2869037315561557,-0.5583405746747502,-1.0840689325336128,-1.845309638456381,-0.3041883813845526,0.7167072386670378,0
-0.2821510516226076,-1.285934317287598,-1.452237219416672,-1.2941801713866756,-0.3176531014636664,-0.287658042485452,-0.4873745986284723,-1.1467549697064094,-1.796943495108945,-0.3044723025314186,1.224397203392914,0
-0.2821510516226076,-1.3061588555656636,-1.454244843508563,-1.2806663799716276,-0.3411477593766839,-0.2855459718834224,-0.5583405746747502,-1.1765437890240609,-1.9617832081502056,-0.3035495588041041,1.0340134666207104,0
-0.2821510516226076,-1.2454852407314665,-1.4529064274473025,-1.2754110166435533,-1.0224928388541932,-0.2852442475117038,-0.4873745986284723,-1.206073575130254,-1.904533487453241,-0.3034075982306711,0.0662294713620089,0
-0.2821510516226076,-1.292675830046953,-1.4355070186509111,-1.2956817037661257,0.0112721093185794,-0.2887140777864668,-1.126068383044973,-1.1519356339355662,-1.8739344988048632,-0.3066017111329135,1.1133400236091286,0
-0.2821510516226076,-1.3061588555656636,-1.447552763202259,-1.2821679123510772,-0.0122225485944381,-0.2887140777864668,-0.9131704549061392,-1.1431285047459998,-1.9341454119516708,-0.3066017111329135,1.1292053350068123,0
-0.2821510516226076,-1.2949230009667383,-1.368586215587868,-1.2776633152127277,-0.2941584435506488,-0.2887140777864668,-0.7712385028135839,-1.1835376857334223,-1.9242747704521936,-0.3052530856853001,1.3671850059720667,0
-0.2821510516226076,-1.3218890520041593,-1.383978000292368,-1.267903354746304,-0.0122225485944381,-0.2887140777864668,-0.5583405746747502,-1.204778409072965,-1.756473864961091,-0.3053950462587331,1.1133400236091286,0
-0.2821510516226076,-1.2814399754480277,-1.323749277535629,-1.2288635128806094,-0.2706637856376313,-0.2857722651622112,-0.345442646535917,-1.2291275309500016,-1.9489513742008855,-0.3036915193775371,0.7008419272693541,0
-0.2821510516226076,-1.2836871463678128,-1.4602677157842372,-1.292678639007226,-0.4351263910287541,-0.2874317492066631,-0.2035106944433612,-1.1915677152886153,-2.0446965967458097,-0.3044013222447021,1.2402625147905977,0
-0.2821510516226076,-1.2634626080897469,-1.441529890926585,-1.3152016246989726,0.4341759517528955,-0.2844899365824075,-0.1325447183970833,-1.1897544828084106,-1.983498619449054,-0.3030526967970887,1.0340134666207104,0
-0.2821510516226076,-1.214024847854475,-1.3458331425464334,-1.2528880309518062,-2.4791616294612817,-0.2839619189319002,-0.2035106944433612,-1.3687464319257756,-1.8255683554574271,-0.3028397559369392,1.827279036504892,0
-0.2821510516226076,-1.2971701718865234,-1.3893316645374112,-1.2476326676237317,-0.3646424172897015,-0.2833584701884631,-0.2744766704896391,-1.2609886159593156,-1.8423484460065376,-0.3025558347900732,1.3354543831766994,0
-0.2821510516226076,-1.3061588555656636,-1.3103651169230206,-1.2513864985723564,0.0817560830576321,-0.2887140777864668,-0.4873745986284723,-1.0547981796388777,-1.669612219765696,-0.3066017111329135,0.7008419272693541,0
-0.2821510516226076,-1.2522267534908216,-1.4381838507734328,-1.338475376580445,0.1287453988836671,-0.2850933853258446,-0.4873745986284723,-0.9993650723869004,-1.60446598586915,-0.3033366179439546,1.018148155223027,0
-0.2621782196641837,-1.2634626080897469,-1.4080694893950634,-1.3264631175448462,0.1287453988836671,-0.2770976894753039,-0.345442646535917,-1.101424157701288,-1.8640638573053865,-0.2992907416011143,1.018148155223027,0
-0.2621782196641837,-1.308406026485449,-1.4187768178851503,-1.2558910957107057,-0.6935676280719473,-0.2767959651035854,-0.2035106944433612,-1.2148807043198206,-2.009162287347693,-0.2991487810276813,0.9705522210299758,0
-0.2621782196641837,-1.308406026485449,-1.3946853287824548,-1.2686541209360291,-0.5056103647678069,-0.2774748449399521,-0.4164086225821944,-1.185609951425085,-1.9489513742008855,-0.2995036824612638,1.1609359578021794,0
-0.2621782196641837,-1.2949230009667383,-1.4863668289788237,-1.237121940967583,-0.388137075202719,-0.2778520004046002,-0.4873745986284723,-1.212808438628158,-1.8857792686042352,-0.2997166233214133,1.1609359578021794,0
-0.2821510516226076,-1.308406026485449,-1.48034395670315,-1.270155653315479,-0.3646424172897015,-0.2854705407904928,-0.7712385028135839,-1.1723992576407354,-1.996330453398374,-0.3034785785173876,1.224397203392914,0
-0.2821510516226076,-1.3241362229239444,-1.3846472083229984,-1.2649002899874044,-0.1062011802465083,-0.2866020071844372,-0.8422044788598614,-1.156598231741807,-1.8413613818565904,-0.3040464208111196,1.1450706464044955,0
-0.2821510516226076,-1.2297550442929708,-1.4662905880599109,-1.3617491284619163,-0.2236744698115961,-0.2887140777864668,-0.9841364309524172,-1.1154119511200111,-1.9864598118988968,-0.3051111251118671,1.018148155223027,0
-0.2821510516226076,-1.2634626080897469,-1.3973621609049764,-1.3152016246989726,0.2932080042747901,-0.2838110567460409,-1.055102406998695,-1.2091819736677485,-2.060489623144972,-0.3027687756502227,1.1292053350068123,0
-0.2821510516226076,-1.315147539244804,-1.3491791826995856,-1.2491342000031815,-0.2001798118985786,-0.2826795903520965,-0.8422044788598614,-1.1840557521563382,-1.8897275252040255,-0.3022719136432072,1.097474712211445,0
-0.2621782196641837,-1.3129003683250189,-1.2782431314527598,-1.2573926280901555,-0.4116317331157366,-0.2817744172369409,-0.7712385028135839,-1.1293997445387345,-1.87097330635502,-0.3017750516361917,1.2085318919952304,0
-0.2621782196641837,-1.2409908988918965,-1.415430777731998,-1.343730739908519,-0.3176531014636664,-0.2812463995864335,-0.7712385028135839,-1.210995206147953,-1.9173653214025608,-0.3014911304893257,1.097474712211445,0
-0.2821510516226076,-1.3106531974052338,-1.4388530588040631,-1.2649002899874044,-0.4586210489417717,-0.2847162298611965,-0.700272526767306,-1.1882002835396634,-1.7781892762599396,-0.3031946573705216,1.2085318919952304,0
-0.2821510516226076,-1.2499795825710365,-1.426138106222085,-1.288924808058601,0.6456278729700534,-0.2838110567460409,-0.6293065507210281,-1.188977383174037,-1.977576234549368,-0.3027687756502227,1.7320871681187902,0
-0.2821510516226076,-1.292675830046953,-1.470975044274324,-1.2866725094894265,-0.0122225485944381,-0.2844899365824075,-0.6293065507210281,-1.265651213765557,-1.799904687558788,-0.3031236770838051,1.303723760381332,0
-0.2821510516226076,-1.2297550442929708,-1.4067310733338023,-1.349736869426318,0.2932080042747901,-0.285017954232915,-0.6293065507210281,-1.2164349035885678,-1.895649910103712,-0.3033366179439546,0.9070909754392412,0
-0.2821510516226076,-1.3241362229239444,-1.3371334381482378,-1.2558910957107057,-0.0122225485944381,-0.2856968340692816,-0.6293065507210281,-1.1995977448438082,-1.957834951550415,-0.3036205390908206,1.097474712211445,0
-0.2821510516226076,-1.3016645137260934,-1.3465023505770637,-1.2821679123510772,-0.2471691277246137,-0.2887140777864668,-0.9841364309524172,-1.179134121138639,-1.9153911931026653,-0.3066017111329135,1.1926665805975467,0
-0.2821510516226076,-1.3061588555656636,-1.2233680729410643,-1.2754110166435533,-0.3646424172897015,-0.2866020071844372,-0.8422044788598614,-1.2161758703771095,-1.928223027051985,-0.3040464208111196,1.1133400236091286,0
-0.2621782196641837,-1.2994173428063085,-1.3451639345158029,-1.2498849661929066,-0.5995889964198772,-0.280944675214715,-0.700272526767306,-1.2081458408219168,-1.9519125666507289,-0.3013491699158927,1.176801269199863,0
-0.2621782196641837,-1.3039116846458787,-1.4381838507734328,-1.276161782833278,-0.4351263910287541,-0.281548123958152,-0.6293065507210281,-1.22213363424064,-1.836426061106852,-0.3017040713494752,1.1450706464044955,0
-0.2621782196641837,-1.3061588555656636,-1.46495217199865,-1.2754110166435533,-0.3411477593766839,-0.2802657953783484,-0.6293065507210281,-1.2288684977385438,-1.9943563250984784,-0.3009942684823102,1.1609359578021794,0
-0.2621782196641837,-1.3106531974052338,-1.427476522283346,-1.245380369054557,0.0817560830576321,-0.2807183819359261,-0.5583405746747502,-1.187164150693832,-2.032851826946437,-0.3012072093424597,1.1133400236091286,0
-0.2621782196641837,-1.3286305647635144,-1.4040542412112809,-1.2588941604696051,-0.1062011802465083,-0.2796623466349113,-0.5583405746747502,-1.2413020918885198,-1.894662845953764,-0.3007103473354443,1.1133400236091286,0
-0.2621782196641837,-1.3218890520041593,-1.4314917704671286,-1.2551403295209809,-0.0827065223334908,-0.2793606222631928,-0.4873745986284723,-1.2301636637958329,-1.980537426999211,-0.3005683867620112,1.1609359578021794,0
-0.2621782196641837,-1.3129003683250189,-1.4689674201824323,-1.2686541209360291,0.3167026621878077,-0.2755890676167113,-0.4873745986284723,-1.1721402244292776,-1.996330453398374,-0.2984389781605163,1.0657440894160777,0
-0.2621782196641837,-1.3039116846458787,-1.3505175987608464,-1.2731587180743784,0.5046599254919482,-0.2761925163601484,-0.4164086225821944,-1.1470140029178677,-1.9528996308006763,-0.2987938795940988,1.049878778018394,0
-0.2621782196641837,-1.3106531974052338,-1.250805602196912,-1.2791648475921775,-0.0357172065074557,-0.2761170852672188,-0.4164086225821944,-1.233272062333327,-1.942041925151252,-0.2987228993073823,1.1450706464044955,0
-0.2621782196641837,-1.315147539244804,-1.335795022086977,-1.2633987576079548,-0.4116317331157366,-0.273627859200541,-0.4873745986284723,-1.2006338776896397,-1.928223027051985,-0.2972323132863358,1.1450706464044955,0
-0.2621782196641837,-1.315147539244804,-1.4234612740995634,-1.2686541209360291,-0.4351263910287541,-0.2728735482712447,-0.4873745986284723,-1.2314588298531222,-1.882818076154392,-0.2967354512793204,1.049878778018394,0
-0.2621782196641837,-1.308406026485449,-1.3973621609049764,-1.2506357323826314,-0.3646424172897015,-0.2731752726429632,-0.6293065507210281,-1.2431153243687247,-2.0654249438947105,-0.2969483921394699,1.1609359578021794,0
-0.2621782196641837,-1.2971701718865234,-1.416769193793259,-1.2799156137819026,-0.2706637856376313,-0.2717420818773003,-0.4873745986284723,-1.1845738185792536,-1.836426061106852,-0.2960256484121554,1.303723760381332,0
-0.2621782196641837,-1.3263833938437293,-1.4334993945590198,-1.2664018223668545,0.0347667672315969,-0.2729489793641744,-0.4164086225821944,-1.2213565346062665,-2.0160717363973277,-0.2968064315660368,1.049878778018394,0
-0.2621782196641837,-1.182564454977484,-1.333118189964455,-1.3414784413393444,1.5854141894907556,-0.2707614776692151,-0.4164086225821944,-1.3034700626384008,-2.0052140307479025,-0.2953868258317069,0.6056500588832524,0
-0.2621782196641837,-1.3218890520041593,-1.4067310733338023,-1.267903354746304,-0.0122225485944381,-0.2694791490894114,-0.345442646535917,-1.2319768962760378,-2.094049804243193,-0.294535062391109,1.1133400236091286,0
-0.2621782196641837,-1.2387437279721112,-1.3291029417806726,-1.3197062218373223,1.045037057491352,-0.2696300112752707,-0.345442646535917,-1.180688320407386,-1.9262488987520896,-0.2946060426778255,1.0816094008137611,0
-0.2621782196641837,-1.3061588555656636,-1.3705938396797597,-1.2446296028648325,0.1522400567966848,-0.2693282869035522,-0.345442646535917,-1.2260191324125076,-1.967705593049892,-0.294393101817676,1.1292053350068123,0
-0.2621782196641837,-1.254473924410607,-1.363901759373455,-1.2438788366751072,-0.6700729701589297,-0.2678950961378892,-0.345442646535917,-1.2482959885978815,-2.00225283829806,-0.2933283975169285,1.985932150481728,0
-0.2621782196641837,-1.285934317287598,-1.4100771134869547,-1.237121940967583,-0.5760943385068595,-0.2653304389782819,-0.345442646535917,-1.2628018484395205,-1.9617832081502056,-0.291411929775583,0.8118991070531396,0
-0.2621782196641837,-1.3106531974052338,-1.3819703762004767,-1.267903354746304,-0.4821157068547893,-0.2655567322570707,-0.345442646535917,-1.2457056564833031,-1.813723585658056,-0.2916248706357325,1.1450706464044955,0
-0.2422053877057598,-1.2971701718865234,-1.4582600916923458,-1.2438788366751072,-0.5291050226808244,-0.2628412129116041,-0.2744766704896391,-1.239488859408315,-1.954873759100572,-0.2894244817475211,1.1609359578021794,0
-0.2422053877057598,-1.3129003683250189,-1.509789110050889,-1.2498849661929066,-0.2471691277246137,-0.2627657818186745,-0.2744766704896391,-1.2055555087073384,-1.892688717653869,-0.2892825211740881,1.1450706464044955,0
-0.2422053877057598,-1.3039116846458787,-1.4388530588040631,-1.238623473347033,0.1052507409706496,-0.2611062977742227,-0.2744766704896391,-1.1983025787865191,-1.9765891703994205,-0.2878629154397582,1.0816094008137611,0
-0.2422053877057598,-1.3286305647635144,-1.4221228580383023,-1.260395692849055,-0.0592118644204732,-0.2594468137297708,-0.2744766704896391,-1.2151397375312785,-1.993369260948531,-0.2864433097054282,1.1609359578021794,0
-0.2422053877057598,-1.2994173428063085,-1.4348378106202806,-1.2844202109202518,-0.0122225485944381,-0.2601256935661375,-0.2744766704896391,-1.1845738185792536,-1.999291645848217,-0.2870111519991602,1.224397203392914,0
-0.2422053877057598,-1.308406026485449,-1.3572096790671506,-1.269404887125754,0.1052507409706496,-0.2579381918711783,-0.2035106944433612,-1.1850918850021694,-1.9765891703994205,-0.2838880193836343,1.271993137585965,0
-0.2422053877057598,-1.2814399754480277,-1.2936349161572598,-1.292678639007226,-0.1062011802465083,-0.2588433649863338,-0.345442646535917,-1.2472598557520502,-1.8541932158059096,-0.2858044871249798,1.4623768743581689,0
-0.2422053877057598,-1.2657097790095322,-1.4301533544058678,-1.3174539232681477,-0.388137075202719,-0.2569575876630931,-0.2744766704896391,-1.42210727348609,-1.8630767931554388,-0.2811197882016909,1.1133400236091286,0
-0.2422053877057598,-1.3129003683250189,-1.3665785914959767,-1.2709064195052036,-0.4351263910287541,-0.2574856053136005,-0.2744766704896391,-1.4368721665391868,-1.586698831170092,-0.2825393939360209,1.0022828438253433,0
-0.2422053877057598,-1.2949230009667383,-1.396692952874346,-1.267903354746304,-0.1062011802465083,-0.2569575876630931,-0.2744766704896391,-1.4565586906099823,-1.6478968084668475,-0.2812617487751239,1.6844912339257392,0
-0.2422053877057598,-1.2746984626886724,-1.2943041241878903,-1.2476326676237317,0.5516492413179833,-0.2563541389196561,-0.2744766704896391,-1.47598618146932,-1.643948551867057,-0.279416261320495,0.4628622563040997,0
-0.2422053877057598,-1.2522267534908216,-1.2293909452167384,-1.2844202109202518,-1.2339447600713511,-0.255750690176219,-0.2035106944433612,-1.4596670891474763,-1.5610351632714528,-0.2777837147260155,1.5099728085512196,0
-0.2422053877057598,-1.308406026485449,-1.3585480951284117,-1.2416265381059324,0.1287453988836671,-0.2555998279903598,-0.2744766704896391,-1.4280650373496202,-1.320191510684222,-0.2772158724322835,0.9864175324276596,0
-0.2422053877057598,-1.261215437169962,-1.3257569016275204,-1.2281127466908843,-0.3646424172897015,-0.2550718103398524,-0.2744766704896391,-1.5088833993244657,-1.3182173823843266,-0.2757962666979536,1.6844912339257392,0
-0.2422053877057598,-1.315147539244804,-1.2916272920653686,-1.2656510561771293,0.3871866359268603,-0.2543929305034857,-0.2744766704896391,-1.4627754876849703,-1.352764627632495,-0.2735958778097422,1.049878778018394,0
-0.2422053877057598,-1.3263833938437293,-1.2929657081266297,-1.2588941604696051,-0.0122225485944381,-0.2539403439459079,-0.2035106944433612,-1.457076757032898,-1.4465357218775234,-0.2723182326488452,1.097474712211445,0
-0.2422053877057598,-1.2432380698116812,-1.390000872568042,-1.2656510561771293,-2.032763129113948,-0.2552226725257116,-0.2744766704896391,-1.3832522917674146,-1.791021110209259,-0.2760801878448196,1.5575687427442704,0
-0.2422053877057598,-1.2994173428063085,-1.3491791826995856,-1.2356204085881335,0.2227240305357374,-0.2542420683176264,-0.2035106944433612,-1.3052832951186055,-1.9499384383508336,-0.2731699960894432,1.049878778018394,0
-0.2422053877057598,-1.2994173428063085,-1.4007082010581289,-1.2859217432997017,-0.2471691277246137,-0.2524317220873153,-0.2035106944433612,-1.22809139810417,-1.87097330635502,-0.2675625534388399,1.1450706464044955,0
-0.2422053877057598,-1.3241362229239444,-1.4294841463752372,-1.260395692849055,0.0817560830576321,-0.2521299977155968,-0.2035106944433612,-1.247777922174966,-1.9292100912019328,-0.2667107899982419,1.1292053350068123,0
-0.2422053877057598,-1.3263833938437293,-1.3973621609049764,-1.260395692849055,-0.2001798118985786,-0.2508476691357931,-0.2035106944433612,-1.2703138115717978,-1.960796144000258,-0.2623809925085356,1.097474712211445,0
-0.2422053877057598,-1.3061588555656636,-1.3926777046905634,-1.2528880309518062,-0.5291050226808244,-0.2518282733438783,-0.2035106944433612,-1.264874114131183,-1.8818310120044444,-0.2656460856974945,1.1450706464044955,0
-0.2422053877057598,-1.317394710164589,-1.412084737578846,-1.2686541209360291,0.1287453988836671,-0.2506213758570043,-0.1325447183970833,-1.2762715754353278,-1.9183523855525084,-0.2616711896413706,1.0816094008137611,0
-0.2222325557473359,-1.317394710164589,-1.4288149383446067,-1.2536387971415308,-0.2706637856376313,-0.2501687892994265,-0.2035106944433612,-1.3120181586165094,-2.0358130193962807,-0.2601806036203242,1.097474712211445,0
-0.2422053877057598,-1.3263833938437293,-1.4529064274473025,-1.2581433942798803,-0.1296958381595259,-0.2513002556933709,-0.2035106944433612,-1.2628018484395205,-1.8995981667035025,-0.2640845193897315,1.1292053350068123,0
-0.2222325557473359,-1.3263833938437293,-1.4535756354779328,-1.2588941604696051,-0.1296958381595259,-0.2502442203923561,-0.2035106944433612,-1.31434945751963,-1.927235962902037,-0.2603935444804736,1.1133400236091286,0
-0.2422053877057598,-1.3061588555656636,-1.4147615697013678,-1.2498849661929066,0.3167026621878077,-0.2506968069499339,-0.2035106944433612,-1.3262649852466903,-1.8551802799558577,-0.2620260910749531,1.1292053350068123,0
-0.2222325557473359,-1.292675830046953,-1.3826395842311072,-1.2799156137819026,0.4811652675789305,-0.2494144783701302,-0.2035106944433612,-1.3083916936560998,-1.8995981667035025,-0.2577672738719632,1.1450706464044955,0
-0.2222325557473359,-1.3129003683250189,-1.3444947264851723,-1.2649002899874044,0.1052507409706496,-0.2494899094630598,-0.2035106944433612,-1.2887051695853042,-2.0210070571470657,-0.2579092344453962,1.3195890717790155,0
-0.2222325557473359,-1.2477324116512516,-1.1236560763771304,-1.245380369054557,0.0817560830576321,-0.2494144783701302,-0.345442646535917,-1.398276218031969,-1.709094785763603,-0.2576253132985303,-0.3938645591708165,0
-0.2222325557473359,-1.292675830046953,-0.9523388205357404,-1.3009370670941998,-0.176685153985561,-0.2497162027418487,-0.345442646535917,-1.458889989513103,-1.370531782331553,-0.2587609978859942,1.049878778018394,0
-0.2222325557473359,-1.214024847854475,-0.9443083241681752,-1.2476326676237317,0.246218688448755,-0.2496407716489191,-0.345442646535917,-1.4627754876849703,-1.0852702429966774,-0.2583351161656952,-1.028477015078162,0
-0.2222325557473359,-1.290428659127168,-0.9583616928114144,-1.2851709771099769,-0.5056103647678069,-0.2486601674408339,-0.345442646535917,-1.4718416500859948,-0.9135210809057832,-0.2550700229767363,0.8594950412461906,0
-0.2222325557473359,-1.2477324116512516,-1.1316865727446956,-1.217602020034736,-0.6700729701589297,-0.2471515455822413,-0.345442646535917,-1.488678808830754,-0.9964344695013873,-0.249888462046432,1.525838119948903,0
-0.2222325557473359,-1.319641881084374,-1.250805602196912,-1.2633987576079548,0.0582614251446145,-0.2482075808832561,-0.345442646535917,-1.506293067209887,-1.1257398731445316,-0.2536504172424064,1.2085318919952304,0
-0.2222325557473359,-1.2072833350951198,-1.2728894672077165,-1.2664018223668545,-2.197225734505071,-0.2473778388610302,-0.2744766704896391,-1.472877782931826,-1.0753996014972005,-0.250598264913597,2.192181198651616,0
-0.2222325557473359,-1.3129003683250189,-1.2748970912996078,-1.270155653315479,-0.0827065223334908,-0.2479812876044672,-0.2744766704896391,-1.48557041029326,-1.115869231645055,-0.2525857129416589,1.303723760381332,0
-0.2222325557473359,-1.3106531974052338,-1.2561592664419556,-1.2649002899874044,0.1522400567966848,-0.2470761144893117,-0.2744766704896391,-1.5156182628223691,-1.0290075864496604,-0.2495335606128495,1.303723760381332,0
-0.2222325557473359,-1.3129003683250189,-1.2380906496149342,-1.267903354746304,0.3636919780138428,-0.2460955102812265,-0.2744766704896391,-1.50111240298073,-0.8957539262067251,-0.2460555265637411,1.0816094008137611,0
-0.2222325557473359,-1.3061588555656636,-1.2548208503806948,-1.2806663799716276,0.1287453988836671,-0.2467743901175932,-0.2035106944433612,-1.4723597165089104,-0.7980345753619063,-0.2483268957386691,0.922956286836925,0
-0.2222325557473359,-1.319641881084374,-1.1597933100311737,-1.2746602504538282,-0.0827065223334908,-0.2459446480953673,-0.2744766704896391,-1.4733958493547417,-0.9559648393535328,-0.2454167039832926,0.9864175324276596,0
-0.2222325557473359,-1.3106531974052338,-1.1879000473176518,-1.2709064195052036,-0.2236744698115961,-0.2458692170024376,-0.2744766704896391,-1.479353613218272,-1.0704642807474622,-0.2452037631231431,1.2561278261882811,0
-0.2222325557473359,-1.3106531974052338,-1.178531134888826,-1.2664018223668545,-0.3411477593766839,-0.245190337166071,-0.2744766704896391,-1.498263037654694,-1.0684901524475667,-0.2427904333747823,1.2402625147905977,0
-0.2222325557473359,-1.3129003683250189,-1.1584548939699129,-1.2581433942798803,-0.5056103647678069,-0.2461709413741561,-0.345442646535917,-1.5135459971307066,-0.9806414431022246,-0.2461265068504576,1.1609359578021794,0
-0.2222325557473359,-1.3129003683250189,-1.2032918320221515,-1.261897225228505,-0.3646424172897015,-0.2454920615377895,-0.345442646535917,-1.4860884767161755,-0.938197684654475,-0.2436421968153802,1.2878584489836489,0
-0.2222325557473359,-1.3061588555656636,-1.230060153247369,-1.2543895633312558,-0.4116317331157366,-0.2448131817014228,-0.4164086225821944,-1.4910101077338749,-0.9391847488044226,-0.2412998473537358,1.2878584489836489,0
-0.2222325557473359,-1.3061588555656636,-1.2113223283897168,-1.2491342000031815,-0.1062011802465083,-0.2459446480953673,-0.345442646535917,-1.4961907719630314,-1.0082792393007591,-0.2455586645567256,1.351319694574383,0
-0.2222325557473359,-1.2791928045282426,-1.2655281788707815,-1.269404887125754,-0.0827065223334908,-0.2448131817014228,-0.4164086225821944,-1.4863475099276335,-0.9618872242532188,-0.2412288670670193,2.0176627732770958,0
-0.2222325557473359,-1.2634626080897469,-1.286273627820325,-1.2536387971415308,-0.4351263910287541,-0.2460200791882969,-0.4873745986284723,-1.501371436192188,-1.043813548698875,-0.2457716054168751,2.1604505758562484,0
-0.2222325557473359,-1.2814399754480277,-1.2327369853698906,-1.2326173438292338,-0.1062011802465083,-0.2446623195155636,-0.4873745986284723,-1.4625164544735123,-1.0102533676006544,-0.2408029853467203,0.5104581904971506,0
-0.2222325557473359,-1.290428659127168,-1.2427751058293472,-1.2664018223668545,0.4341759517528955,-0.2461709413741561,-0.4873745986284723,-1.5104375985932126,-0.7822415489627434,-0.2462684674238906,0.5104581904971506,0
-0.2222325557473359,-1.2949230009667383,-1.2715510511464556,-1.260395692849055,0.3401973201008252,-0.2442097329579858,-0.4164086225821944,-1.5000762701348989,-0.7625002659637901,-0.2390994584655244,1.573434054141954,0
-0.2222325557473359,-1.2949230009667383,-1.2902888760041076,-1.267152588556579,-0.1296958381595259,-0.243153697656971,-0.345442646535917,-1.4868655763505492,-0.9263529148551028,-0.2349826018359675,1.7162218567211065,0
-0.2222325557473359,-1.292675830046953,-1.2247064890023256,-1.2506357323826314,0.3167026621878077,-0.2423993867276747,-0.4164086225821944,-1.4902330080995012,-0.9105598884559402,-0.2320014297938746,1.4306462515628011,0
-0.2222325557473359,-1.285934317287598,-1.178531134888826,-1.2573926280901555,0.5281545834049657,-0.2420222312630266,-0.4873745986284723,-1.4708055172401635,-0.8681161300081905,-0.2305818240595447,0.4311316335087324,0
-0.2222325557473359,-1.1938003095764094,-1.1805387589807173,-1.2491342000031815,1.5384248736647204,-0.2433799909357599,-0.4873745986284723,-1.4990401372890676,-0.9569519035034806,-0.2358343652765655,2.6840058519798085,0
-0.2222325557473359,-1.2994173428063085,-1.131017364714065,-1.2528880309518062,-0.388137075202719,-0.2419468001700969,-0.4873745986284723,-1.4744319822005731,-0.8769997073577195,-0.2304398634861117,0.6373806816786196,0
-0.2222325557473359,-1.285934317287598,-1.0687810178654351,-1.2476326676237317,-0.388137075202719,-0.2414942136125192,-0.4873745986284723,-1.4726187497203682,-0.9253658507051552,-0.2285943760314827,1.5575687427442704,0
-0.2222325557473359,-1.3016645137260934,-1.100903003335696,-1.2769125490230029,-0.5760943385068595,-0.2414942136125192,-0.4164086225821944,-1.4985220708661515,-1.0418394203989798,-0.2284524154580497,1.0657440894160777,0
-0.2222325557473359,-1.261215437169962,-1.1671545983681084,-1.2513864985723564,0.0817560830576321,-0.2415696447054488,-0.345442646535917,-1.5296060562410922,-1.1089597825954212,-0.2288782971783487,2.271507755640034,0
-0.2222325557473359,-1.2477324116512516,-1.188569255348282,-1.2303650452600592,-0.5291050226808244,-0.2414942136125192,-0.4164086225821944,-1.4974859380203207,-0.9806414431022246,-0.2285943760314827,1.9066055934933104,0
-0.2222325557473359,-1.285934317287598,-1.1597933100311737,-1.2491342000031815,-0.6465783122459121,-0.2402873161256451,-0.4164086225821944,-1.4739139157776575,-0.8039569602615921,-0.2237677165347609,0.6056500588832524,0
-0.2222325557473359,-1.308406026485449,-1.152432021694239,-1.2498849661929066,-0.4351263910287541,-0.2413433514266599,-0.4873745986284723,-1.463552587319344,-0.6805739415181338,-0.2278845731643178,1.1133400236091286,0
-0.2222325557473359,-1.2971701718865234,-1.1805387589807173,-1.2686541209360291,-0.4116317331157366,-0.2404381783115044,-0.4873745986284723,-1.4575948234558136,-0.8769997073577195,-0.2241935982550599,1.4623768743581689,0
-0.2222325557473359,-1.3061588555656636,-1.2481287700743906,-1.2731587180743784,-0.3176531014636664,-0.2399855917539266,-0.4873745986284723,-1.503443701883851,-1.064541895847776,-0.2224900713738639,1.224397203392914,0
-0.2222325557473359,-1.3061588555656636,-1.2334061934005212,-1.2536387971415308,-0.2001798118985786,-0.2395330051963488,-0.4873745986284723,-1.497226904808863,-1.1119209750452643,-0.2207155642059515,1.4147809401651177,0
-0.2222325557473359,-1.3218890520041593,-1.260843722656369,-1.26114645903878,-0.176685153985561,-0.2411924892408007,-0.4873745986284723,-1.4860884767161755,-0.8858832847072484,-0.2271747702971528,1.224397203392914,0
-0.2222325557473359,-1.3241362229239444,-1.3003269964635642,-1.2649002899874044,-0.0122225485944381,-0.2388541253599822,-0.4873745986284723,-1.4860884767161755,-0.6114794510217971,-0.2179473330240081,1.1292053350068123,0
-0.2222325557473359,-1.2836871463678128,-1.2293909452167384,-1.2724079518846534,-0.0357172065074557,-0.2398347295680673,-0.4164086225821944,-1.4912691409453325,-0.7743450357631622,-0.2217092882199825,0.1931519625434778,0
-0.2222325557473359,-1.2679569499293173,-1.2213604488491734,-1.2949309375764004,0.5516492413179833,-0.2392312808246303,-0.4873745986284723,-1.5026666022494772,-0.9964344695013873,-0.2192249781849051,1.3195890717790155,0
-0.2222325557473359,-1.2836871463678128,-1.2213604488491734,-1.2686541209360291,0.457670609665913,-0.2407399026832229,-0.4873745986284723,-1.4954136723286575,-1.1257398731445316,-0.2254712434159569,1.6051646769373211,0
-0.2222325557473359,-1.315147539244804,-1.191246087470804,-1.260395692849055,0.3636919780138428,-0.2416450757983784,-0.4873745986284723,-1.4847933106588866,-0.8365300772098652,-0.2289492774650652,1.1450706464044955,0
-0.2222325557473359,-1.319641881084374,-1.1577856859392823,-1.2581433942798803,0.1052507409706496,-0.2384015388024044,-0.4873745986284723,-1.4723597165089104,-0.7161082509162497,-0.2157469441357967,1.1609359578021794,0
-0.2222325557473359,-1.2836871463678128,-1.1624701421536956,-1.2543895633312558,-0.3646424172897015,-0.2393821430104896,-0.5583405746747502,-1.4832391113901395,-0.8513360394590802,-0.2200057613387865,0.2566132081342124,0
-0.2222325557473359,-1.2949230009667383,-1.1537704377554998,-1.267903354746304,-0.3646424172897015,-0.2394575741034192,-0.5583405746747502,-1.500335303346357,-1.0082792393007591,-0.220360662772369,0.4787275677017832,0
-0.2222325557473359,-1.319641881084374,-1.1203100362239782,-1.2656510561771293,-0.2941584435506488,-0.240513609404434,-0.5583405746747502,-1.5024075690380194,-1.0063051110008638,-0.2246904602620754,1.1133400236091286,0
-0.2222325557473359,-1.2702041208491022,-1.1497551895717173,-1.2521372647620812,0.0582614251446145,-0.2392312808246303,-0.4873745986284723,-1.5135459971307066,-1.1030373976957353,-0.2192249781849051,2.128719953060881,0
-0.2222325557473359,-1.2971701718865234,-1.1644777662455867,-1.245380369054557,-0.2236744698115961,-0.2394575741034192,-0.4873745986284723,-1.487124609562007,-0.8720643866079812,-0.2201477219122195,1.4306462515628011,0
-0.2222325557473359,-1.2702041208491022,-1.1738466786744128,-1.2333681100189586,-0.5995889964198772,-0.2377980900589674,-0.4873745986284723,-1.4708055172401635,-0.6707033000186571,-0.2134045946741523,0.5580541246902015,0
-0.2222325557473359,-1.2994173428063085,-1.134363404867217,-1.2498849661929066,-0.4351263910287541,-0.2383261077094748,-0.4873745986284723,-1.472877782931826,-0.7723709074632669,-0.2156049835623637,0.7325725500647214,0
-0.2222325557473359,-1.3039116846458787,-1.151093605632978,-1.2686541209360291,-0.5760943385068595,-0.2396084362892785,-0.4873745986284723,-1.4811668456984768,-1.01222749590055,-0.220786544492668,0.8436297298485069,0
-0.2222325557473359,-1.2657097790095322,-1.2494671861356514,-1.261897225228505,-0.388137075202719,-0.2393821430104896,-0.4873745986284723,-1.50111240298073,-1.172131888192072,-0.220076741625503,2.2556424442423504,0
-0.2222325557473359,-1.2971701718865234,-1.286273627820325,-1.267152588556579,-0.3411477593766839,-0.238476969895334,-0.5583405746747502,-1.5008533697692723,-1.0053180468509162,-0.2162438061428122,1.525838119948903,0
-0.2222325557473359,-1.3061588555656636,-1.286273627820325,-1.260395692849055,-0.0592118644204732,-0.2376472278731081,-0.5583405746747502,-1.5037027350953087,-0.9332623639047364,-0.2128367523804203,1.6210299883350048,0
-0.2222325557473359,-1.3039116846458787,-1.2046302480834126,-1.2633987576079548,-0.2471691277246137,-0.2390049875458414,-0.5583405746747502,-1.4925643070026215,-0.9204305299554169,-0.2185151753177401,0.5263235018948342,0
-0.2222325557473359,-1.2949230009667383,-1.203961040052782,-1.267903354746304,-0.2001798118985786,-0.2391558497317007,-0.5583405746747502,-1.4863475099276335,-0.7062376094167732,-0.2190120373247556,0.3676703879179979,1
-0.2222325557473359,-1.288181488207383,-1.2360830255230428,-1.2881740418688763,0.4106812938398779,-0.2396084362892785,-0.5583405746747502,-1.4860884767161755,-0.8839091564073531,-0.2208575247793845,0.9388215982346086,0
-0.2222325557473359,-1.2702041208491022,-1.2247064890023256,-1.2754110166435533,0.7865958204481588,-0.2393067119175599,-0.5583405746747502,-1.5057750007869712,-1.136597578793956,-0.219650859905204,1.525838119948903,0
-0.2222325557473359,-1.2791928045282426,-1.245451937951869,-1.2821679123510772,0.6221332150570359,-0.2393067119175599,-0.5583405746747502,-1.5024075690380194,-1.1671965674423337,-0.2195798796184876,1.3195890717790155,0
-0.2222325557473359,-1.3106531974052338,-1.2059686641446734,-1.2573926280901555,0.2227240305357374,-0.2363648992933044,-0.5583405746747502,-1.4726187497203682,-0.8582454885087138,-0.2074422505899665,1.2561278261882811,0
-0.2222325557473359,-1.315147539244804,-1.1638085582149564,-1.25964492665933,0.1522400567966848,-0.2384015388024044,-0.4873745986284723,-1.4708055172401635,-0.8542972319089231,-0.2159598849959462,0.8118991070531396,0
-0.2222325557473359,-1.3039116846458787,-1.1336941968365868,-1.2581433942798803,0.0347667672315969,-0.238476969895334,-0.5583405746747502,-1.476504247892236,-0.8612066809585568,-0.2161728258560957,0.4945928790994669,0
-0.2222325557473359,-1.2994173428063085,-1.198607375807739,-1.260395692849055,-0.0827065223334908,-0.2361386060145155,-0.5583405746747502,-1.4933414066369952,-0.9451071337041084,-0.206377546289219,0.2566132081342124,0
-0.2222325557473359,-1.3129003683250189,-1.191246087470804,-1.276161782833278,0.0347667672315969,-0.2356860194569378,-0.5583405746747502,-1.502925635460935,-1.035917035499294,-0.2044610785478736,0.9705522210299758,0
-0.2222325557473359,-1.2679569499293173,-1.2079762882365648,-1.2573926280901555,-0.1062011802465083,-0.2356860194569378,-0.4873745986284723,-1.5195037609942366,-1.0260463939998172,-0.2043900982611571,2.3349690012307684,0
-0.2222325557473359,-1.2791928045282426,-1.161800934123065,-1.245380369054557,-0.2471691277246137,-0.2362140371074452,-0.5583405746747502,-1.506552100421345,-0.9263529148551028,-0.206519506862652,1.7479524795164738,0
-0.2222325557473359,-1.3016645137260934,-1.219352824757282,-1.238623473347033,-0.1531904960725434,-0.2356860194569378,-0.4873745986284723,-1.4788355467953562,-0.7131470584664067,-0.2042481376877241,1.2085318919952304,0
-0.2222325557473359,-1.2409908988918965,-1.137040236989739,-1.1920759695840892,-0.0827065223334908,-0.2377980900589674,-0.4873745986284723,-1.507847266478634,-0.8000087036618015,-0.2134045946741523,1.5417034313465867,0
-0.2222325557473359,-1.1960474804961945,-1.3137111570761728,-1.2281127466908843,0.4811652675789305,-0.2439834396791969,-0.6293065507210281,-1.479094580006814,-1.5255008538733368,-0.2382476950249264,-0.8222279669082745,0
-0.2222325557473359,-1.2746984626886724,-1.5051046538364758,-1.2318665776395088,-0.9050195492891052,-0.2380998144306859,-0.5583405746747502,-1.3718548304632698,-1.856167344105805,-0.2146112595483327,1.1450706464044955,0
-0.2222325557473359,-1.2117776769346902,-1.398031368935607,-1.2416265381059324,0.4341759517528955,-0.2402118850327155,-0.5583405746747502,-1.2368985272937367,-2.030877698646542,-0.2234837953878949,-0.8380932783059581,0
-0.2222325557473359,-1.254473924410607,-1.3552020549752597,-1.267152588556579,-0.7405569438979824,-0.2383261077094748,-0.5583405746747502,-1.185609951425085,-1.907494679903084,-0.2154630229889307,-0.108288954012511,0
-0.2222325557473359,-1.2657097790095322,-1.2166759926347603,-1.2543895633312558,1.726382136968861,-0.2381752455236155,-0.6293065507210281,-1.233272062333327,-2.051606045795443,-0.2149661609819152,0.922956286836925,0
-0.2222325557473359,-1.1645870876192033,-1.4662905880599109,-1.2874232756791515,-3.2544853405908616,-0.2393067119175599,-0.5583405746747502,-1.182501552887591,-2.0831920985937686,-0.219650859905204,1.9383362162886777,0
-0.2222325557473359,-1.2522267534908216,-1.5198272305103453,-1.2799156137819026,0.3401973201008252,-0.2365911925720933,-0.6293065507210281,-1.25088632071246,-1.5106948916241216,-0.2082230337438479,2.0969893302655143,0
-0.2222325557473359,-1.099419130945436,-1.1256637004690218,-1.2093435919477618,2.9246096905327565,-0.23727007240846,-0.5583405746747502,-1.2265371988354232,-1.49885012182475,-0.2112751860726573,2.8902549001496958,1
-0.2222325557473359,-1.315147539244804,-1.3204032373824772,-1.269404887125754,-0.1296958381595259,-0.2355351572710785,-0.5583405746747502,-1.2640970144968096,-2.0150846722473794,-0.2037512756807086,1.224397203392914,0
-0.2222325557473359,-1.3106531974052338,-1.239429065676195,-1.2649002899874044,-0.0827065223334908,-0.2362894682003748,-0.4873745986284723,-1.1703269919490726,-1.901572295003398,-0.2070163688696675,1.446511562960485,0
-0.2222325557473359,-1.2522267534908216,-1.2829275876671729,-1.2844202109202518,-0.764051601811,-0.2396838673822081,-0.5583405746747502,-1.2511453539239177,-1.777202212109992,-0.221070465639534,0.1931519625434778,0
-0.2222325557473359,-1.2814399754480277,-1.2889504599428467,-1.2784140814024527,-0.0592118644204732,-0.2410416270549414,-0.5583405746747502,-1.2327539959104112,-1.8749215629548104,-0.2267488885768538,1.8114137251072084,0
-0.2222325557473359,-1.2499795825710365,-1.2327369853698906,-1.223608149552535,-0.0827065223334908,-0.2399855917539266,-0.5583405746747502,-1.2358623944479057,-1.87097330635502,-0.2222771305137145,2.065258707470147,0
-0.2222325557473359,-1.2971701718865234,-1.3465023505770637,-1.2408757719162078,-0.1296958381595259,-0.2407399026832229,-0.6293065507210281,-1.215398770742736,-1.9499384383508336,-0.2254002631292403,0.6691113044739869,0
-0.2222325557473359,-1.319641881084374,-1.3110343249536511,-1.2513864985723564,-0.176685153985561,-0.2407399026832229,-0.5583405746747502,-1.2104771397250371,-1.820633034707689,-0.2254002631292403,1.0657440894160777,0
-0.2222325557473359,-1.308406026485449,-1.3070190767698684,-1.2581433942798803,-0.1296958381595259,-0.2433045598428303,-0.4873745986284723,-1.2330130291218693,-1.9686926571998395,-0.2356924047031325,0.5263235018948342,0
-0.2222325557473359,-1.3286305647635144,-1.3759475039248028,-1.2626479914182298,-0.0592118644204732,-0.2434554220286895,-0.5583405746747502,-1.2420791915228937,-1.7850987253095731,-0.2359763258499985,0.9070909754392412,0
-0.2222325557473359,-1.3039116846458787,-1.2989885804023034,-1.2566418619004307,0.0112721093185794,-0.2428519732852525,-0.5583405746747502,-1.2389707929853997,-1.9055205516031888,-0.233775936961787,0.5104581904971506,0
-0.2222325557473359,-1.3129003683250189,-1.3384718542094989,-1.2543895633312558,-0.1062011802465083,-0.2427011110993932,-0.4873745986284723,-1.2392298261968573,-1.9588220157003624,-0.2331371143813386,0.7008419272693541,0
-0.2222325557473359,-1.3286305647635144,-1.4094079054563242,-1.260395692849055,0.0582614251446145,-0.2400610228468562,-0.5583405746747502,-1.218766202491688,-1.9884339401987925,-0.2226320319472969,0.9705522210299758,0
-0.2222325557473359,-1.3218890520041593,-1.339141062240129,-1.2558910957107057,0.1287453988836671,-0.2400610228468562,-0.4873745986284723,-1.1951941802490251,-2.0486448533456003,-0.2226320319472969,1.0022828438253433,0
-0.2222325557473359,-1.308406026485449,-1.183884799133869,-1.267152588556579,0.0582614251446145,-0.2408907648690821,-0.4873745986284723,-1.2084048740333746,-2.023968249596909,-0.2259681054229723,1.3671850059720667,0
-0.2222325557473359,-1.3218890520041593,-1.1350326128978476,-1.2664018223668545,0.0582614251446145,-0.2382506766165451,-0.4873745986284723,-1.206073575130254,-2.011136415647589,-0.2153920427022142,1.0657440894160777,0
-0.2222325557473359,-1.315147539244804,-1.0674426018041745,-1.2724079518846534,-0.1062011802465083,-0.242550248913534,-0.4873745986284723,-1.2309407634302063,-2.1453771400404715,-0.2327112326610396,1.1609359578021794,0
-0.2222325557473359,-1.3106531974052338,-1.1403862771428912,-1.276161782833278,-0.2471691277246137,-0.2427011110993932,-0.4873745986284723,-1.2107361729364952,-2.140441819290733,-0.2332790749547716,1.1292053350068123,0
-0.2222325557473359,-1.3286305647635144,-1.2976501643410423,-1.261897225228505,-0.0592118644204732,-0.240513609404434,-0.4873745986284723,-1.167995693045952,-2.01903292884717,-0.2246904602620754,1.1292053350068123,0
-0.2422053877057598,-1.3106531974052338,-1.2621821387176295,-1.2581433942798803,-0.1296958381595259,-0.2581644851499671,-0.4873745986284723,-1.1848328517907114,-2.0901015476434024,-0.2845978222507993,1.4306462515628011,0
-0.2422053877057598,-1.3061588555656636,-1.2467903540131298,-1.261897225228505,-0.2001798118985786,-0.2629166440045337,-0.4873745986284723,-1.2216155678177243,-1.906507615753136,-0.2894954620342376,1.5099728085512196,0
